accelerometer_x,accelerometer_y,accelerometer_z,fall
3892,-638,1165,0
3888,-637,1167,0
3884,-630,1173,0
3878,-626,1173,0
3873,-619,1174,0
3866,-617,1178,0
3866,-615,1175,0
3872,-613,1169,0
3873,-609,1164,0
3875,-610,1161,0
3876,-614,1159,0
3878,-611,1157,0
3876,-613,1153,0
3875,-618,1149,0
3874,-620,1152,0
3876,-624,1146,0
3881,-623,1147,0
3881,-622,1147,0
3880,-622,1146,0
3880,-626,1147,0
3882,-624,1147,0
3881,-622,1147,0
3881,-621,1150,0
3880,-622,1151,0
3879,-619,1155,0
3878,-616,1158,0
3881,-619,1158,0
3881,-618,1156,0
3881,-618,1153,0
3881,-618,1151,0
3883,-621,1150,0
3883,-618,1155,0
3881,-616,1160,0
3887,-628,1147,0
3886,-627,1146,0
3883,-620,1156,0
3886,-621,1161,0
3892,-625,1160,0
3897,-622,1164,0
3893,-617,1169,0
3897,-625,1164,0
3891,-625,1159,0
3886,-622,1158,0
3884,-620,1155,0
3889,-623,1152,0
3886,-620,1155,0
3888,-621,1145,0
3896,-620,1140,0
3895,-611,1142,0
3896,-605,1140,0
3902,-617,1142,0
3906,-617,1140,0
3908,-619,1139,0
3911,-622,1131,0
3910,-619,1124,0
3907,-619,1120,0
3908,-618,1124,0
3918,-622,1122,0
3919,-617,1121,0
3922,-622,1115,0
3921,-620,1114,0
3923,-621,1114,0
3918,-621,1109,0
3916,-623,1113,0
3912,-621,1115,0
3903,-614,1120,0
3897,-613,1118,0
3891,-613,1124,0
3885,-611,1126,0
3882,-612,1130,0
3883,-608,1132,0
3883,-610,1137,0
3881,-607,1134,0
3881,-613,1135,0
3885,-616,1133,0
3895,-613,1131,0
3902,-618,1123,0
3903,-615,1124,0
3903,-624,1114,0
3909,-629,1112,0
3911,-627,1114,0
3911,-631,1117,0
3908,-635,1119,0
3904,-636,1122,0
3904,-638,1128,0
3906,-640,1129,0
3909,-639,1132,0
3910,-635,1133,0
3912,-633,1132,0
3914,-636,1135,0
3921,-635,1132,0
3928,-640,1129,0
3929,-644,1132,0
3924,-649,1128,0
3916,-653,1128,0
3909,-653,1128,0
3903,-653,1131,0
3899,-652,1130,0
3892,-655,1132,0
3888,-658,1134,0
3884,-653,1134,0
3885,-650,1134,0
3881,-649,1134,0
3881,-648,1131,0
3877,-642,1126,0
3872,-641,1120,0
3872,-637,1118,0
3873,-637,1118,0
3875,-637,1119,0
3873,-642,1119,0
3873,-646,1128,0
3874,-653,1131,0
3876,-654,1135,0
3877,-654,1136,0
3879,-655,1135,0
3882,-656,1140,0
3883,-653,1143,0
3885,-648,1149,0
3886,-649,1151,0
3889,-640,1151,0
3891,-640,1150,0
3892,-636,1151,0
3896,-632,1150,0
3893,-633,1149,0
3889,-628,1151,0
3891,-628,1151,0
3898,-627,1150,0
3900,-628,1150,0
3897,-630,1147,0
3898,-630,1149,0
3899,-631,1151,0
3903,-630,1152,0
3907,-633,1150,0
3905,-635,1155,0
3906,-633,1154,0
3902,-632,1154,0
3901,-630,1154,0
3893,-625,1155,0
3890,-623,1156,0
3886,-619,1156,0
3888,-612,1160,0
3889,-606,1160,0
3888,-602,1161,0
3892,-599,1158,0
3892,-603,1152,0
3893,-604,1148,0
3890,-604,1143,0
3887,-609,1141,0
3885,-612,1139,0
3885,-615,1138,0
3887,-619,1137,0
3888,-626,1137,0
3887,-631,1143,0
3889,-630,1144,0
3887,-634,1145,0
3890,-636,1146,0
3889,-638,1150,0
3889,-637,1153,0
3891,-634,1155,0
3888,-629,1158,0
3888,-627,1159,0
3888,-625,1157,0
3885,-625,1157,0
3884,-625,1153,0
3884,-628,1153,0
3879,-629,1153,0
3877,-628,1151,0
3878,-628,1153,0
3885,-627,1151,0
3890,-625,1153,0
3894,-624,1152,0
3902,-623,1151,0
3904,-625,1150,0
3906,-628,1154,0
3908,-628,1158,0
3908,-628,1157,0
3909,-628,1152,0
3907,-625,1153,0
3906,-625,1153,0
3904,-625,1151,0
3902,-628,1150,0
3899,-629,1151,0
3892,-626,1153,0
3887,-626,1156,0
3884,-626,1160,0
3880,-631,1160,0
3879,-627,1162,0
3879,-629,1165,0
3878,-627,1161,0
3879,-628,1161,0
3876,-625,1163,0
3874,-628,1162,0
3873,-622,1166,0
3873,-627,1168,0
3874,-630,1170,0
3873,-628,1171,0
3876,-627,1175,0
3878,-627,1177,0
3880,-625,1178,0
3882,-625,1176,0
3885,-629,1172,0
3884,-630,1174,0
3882,-630,1172,0
3880,-631,1169,0
3883,-629,1173,0
3880,-632,1169,0
3879,-634,1171,0
3881,-637,1170,0
3879,-635,1175,0
3875,-638,1177,0
3877,-642,1179,0
3878,-640,1182,0
3874,-637,1183,0
3876,-629,1186,0
3878,-632,1189,0
3881,-629,1188,0
3880,-626,1185,0
3877,-621,1186,0
3876,-618,1181,0
3878,-621,1176,0
3881,-622,1175,0
3881,-621,1175,0
3879,-623,1173,0
3877,-625,1171,0
3876,-627,1174,0
3871,-629,1174,0
3870,-625,1176,0
3876,-623,1176,0
3882,-619,1177,0
3884,-620,1177,0
3887,-617,1179,0
3890,-621,1178,0
3895,-622,1180,0
3893,-625,1181,0
3894,-631,1183,0
3894,-640,1179,0
3893,-646,1178,0
3890,-643,1178,0
3883,-642,1177,0
3878,-637,1179,0
3875,-633,1184,0
3872,-632,1189,0
3872,-623,1192,0
3872,-619,1188,0
3872,-617,1184,0
3871,-615,1179,0
3869,-609,1174,0
3873,-608,1172,0
3873,-604,1171,0
3871,-603,1171,0
3874,-603,1173,0
3876,-607,1172,0
3878,-613,1174,0
3880,-620,1177,0
3879,-628,1176,0
3880,-632,1177,0
3879,-637,1177,0
3877,-639,1182,0
3877,-638,1180,0
3879,-638,1178,0
3880,-635,1175,0
3883,-628,1177,0
3885,-626,1178,0
3880,-626,1178,0
3882,-628,1176,0
3882,-624,1178,0
3883,-622,1178,0
3886,-621,1178,0
3883,-621,1176,0
3885,-618,1177,0
3881,-619,1177,0
3881,-619,1171,0
3883,-618,1172,0
3885,-619,1174,0
3886,-624,1174,0
3886,-629,1175,0
3886,-630,1175,0
3887,-632,1175,0
3887,-632,1174,0
3885,-635,1175,0
3886,-633,1173,0
3886,-630,1174,0
3888,-631,1176,0
3888,-627,1173,0
3888,-625,1167,0
3887,-622,1167,0
3886,-624,1166,0
3888,-623,1170,0
3885,-622,1171,0
3885,-619,1168,0
3882,-621,1166,0
3881,-625,1172,0
3878,-625,1173,0
3879,-623,1174,0
3882,-617,1176,0
3883,-619,1180,0
3884,-619,1180,0
3884,-619,1181,0
3883,-616,1180,0
3885,-616,1183,0
3882,-616,1180,0
3888,-621,1178,0
3885,-617,1185,0
3877,-619,1181,0
3877,-623,1179,0
3876,-621,1181,0
3878,-618,1185,0
3878,-620,1185,0
3877,-621,1187,0
3879,-618,1187,0
3878,-618,1185,0
3880,-615,1184,0
3883,-612,1185,0
3881,-611,1185,0
3886,-609,1182,0
3885,-608,1183,0
3886,-612,1181,0
3890,-613,1183,0
3889,-614,1181,0
3889,-617,1175,0
3885,-620,1175,0
3884,-620,1175,0
3884,-620,1175,0
3885,-616,1172,0
3884,-621,1173,0
3885,-620,1172,0
3881,-621,1172,0
3882,-625,1174,0
3882,-623,1175,0
3885,-624,1173,0
3885,-624,1174,0
3885,-627,1170,0
3885,-624,1172,0
3879,-623,1173,0
3882,-623,1173,0
3880,-624,1174,0
3883,-623,1175,0
3885,-622,1178,0
3886,-624,1175,0
3885,-626,1175,0
3886,-624,1176,0
3888,-619,1174,0
3889,-619,1174,0
3886,-623,1173,0
3889,-623,1175,0
3891,-627,1177,0
3889,-626,1172,0
3890,-627,1171,0
3885,-625,1173,0
3879,-623,1179,0
3879,-621,1178,0
3885,-621,1179,0
3882,-622,1179,0
3880,-619,1182,0
3878,-617,1184,0
3881,-618,1181,0
3877,-619,1182,0
3877,-623,1183,0
3881,-625,1178,0
3879,-613,1182,0
3875,-616,1179,0
3880,-623,1172,0
3883,-622,1173,0
3882,-624,1174,0
3881,-622,1178,0
3878,-621,1176,0
3880,-623,1178,0
3878,-621,1177,0
3877,-620,1177,0
3878,-625,1175,0
3877,-629,1175,0
3876,-625,1179,0
3878,-624,1180,0
3879,-622,1184,0
3880,-623,1182,0
3881,-621,1185,0
3881,-621,1187,0
3881,-620,1191,0
3881,-622,1191,0
3881,-625,1189,0
3885,-626,1185,0
3885,-631,1176,0
3882,-633,1169,0
3883,-634,1165,0
3880,-632,1170,0
3880,-628,1170,0
3881,-625,1178,0
3881,-624,1182,0
3878,-622,1184,0
3881,-619,1184,0
3883,-618,1183,0
3889,-617,1184,0
3897,-617,1185,0
3902,-620,1185,0
3899,-620,1184,0
3904,-623,1179,0
3904,-630,1172,0
3899,-634,1169,0
3896,-638,1169,0
3893,-639,1170,0
3890,-634,1169,0
3887,-632,1176,0
3884,-625,1180,0
3885,-622,1184,0
3883,-622,1185,0
3877,-618,1187,0
3873,-613,1185,0
3867,-609,1184,0
3866,-604,1178,0
3870,-603,1173,0
3869,-601,1171,0
3870,-598,1170,0
3870,-598,1167,0
3870,-605,1168,0
3870,-607,1175,0
3875,-613,1174,0
3878,-619,1177,0
3881,-621,1180,0
3882,-623,1178,0
3887,-626,1178,0
3886,-625,1179,0
3887,-623,1180,0
3886,-622,1179,0
3886,-624,1181,0
3883,-620,1183,0
3882,-622,1182,0
3883,-619,1181,0
3883,-623,1183,0
3881,-620,1183,0
3881,-619,1185,0
3883,-623,1182,0
3881,-622,1182,0
3883,-624,1179,0
3888,-627,1179,0
3884,-633,1177,0
3882,-633,1176,0
3881,-634,1173,0
3883,-636,1174,0
3889,-633,1179,0
3889,-628,1186,0
3889,-640,1177,0
3885,-642,1170,0
3883,-634,1172,0
3880,-630,1176,0
3879,-629,1179,0
3880,-630,1178,0
3881,-625,1177,0
3882,-621,1179,0
3881,-621,1179,0
3882,-620,1181,0
3884,-617,1181,0
3882,-618,1181,0
3878,-625,1177,0
3878,-624,1176,0
3879,-627,1181,0
3878,-631,1184,0
3879,-632,1187,0
3877,-632,1187,0
3874,-629,1188,0
3874,-630,1189,0
3874,-630,1187,0
3877,-630,1186,0
3878,-625,1185,0
3877,-623,1185,0
3875,-621,1181,0
3869,-618,1183,0
3875,-619,1182,0
3877,-615,1183,0
3877,-612,1185,0
3880,-613,1184,0
3880,-613,1179,0
3883,-609,1181,0
3887,-605,1180,0
3888,-606,1180,0
3884,-609,1182,0
3886,-612,1181,0
3889,-608,1179,0
3888,-607,1179,0
3888,-605,1179,0
3889,-608,1180,0
3885,-600,1182,0
3884,-605,1178,0
3888,-604,1178,0
3885,-609,1176,0
3883,-610,1177,0
3885,-610,1178,0
3883,-609,1182,0
3882,-611,1186,0
3880,-609,1184,0
3880,-609,1183,0
3881,-608,1189,0
3878,-609,1189,0
3879,-612,1182,0
3882,-615,1183,0
3886,-615,1179,0
3889,-617,1178,0
3890,-613,1178,0
3888,-616,1180,0
3886,-614,1179,0
3886,-613,1175,0
3889,-612,1177,0
3888,-615,1176,0
3885,-613,1175,0
3880,-612,1173,0
3882,-613,1166,0
3881,-612,1165,0
3883,-615,1162,0
3882,-616,1160,0
3882,-611,1159,0
3883,-612,1162,0
3882,-609,1158,0
3882,-608,1156,0
3882,-609,1162,0
3883,-610,1163,0
3885,-611,1164,0
3885,-610,1165,0
3887,-609,1163,0
3885,-611,1161,0
3884,-609,1160,0
3887,-606,1161,0
3889,-607,1163,0
3889,-610,1160,0
3890,-611,1161,0
3891,-612,1154,0
3890,-612,1156,0
3892,-611,1158,0
3890,-611,1157,0
3892,-610,1156,0
3894,-606,1152,0
3899,-606,1152,0
3901,-605,1154,0
3902,-606,1148,0
3902,-610,1145,0
3904,-608,1149,0
3907,-604,1149,0
3908,-602,1145,0
3908,-602,1148,0
3907,-604,1151,0
3903,-600,1147,0
3900,-602,1150,0
3901,-601,1151,0
3902,-598,1155,0
3899,-604,1150,0
3893,-608,1147,0
3892,-606,1149,0
3886,-606,1151,0
3884,-605,1151,0
3881,-602,1149,0
3881,-604,1147,0
3883,-605,1150,0
3882,-603,1151,0
3882,-603,1147,0
3882,-604,1144,0
3885,-602,1137,0
3889,-600,1137,0
3894,-605,1136,0
3895,-609,1136,0
3904,-607,1138,0
3904,-600,1142,0
3907,-602,1145,0
3913,-602,1154,0
3911,-600,1153,0
3911,-598,1152,0
3906,-600,1150,0
3906,-596,1152,0
3908,-594,1149,0
3906,-595,1151,0
3905,-597,1154,0
3911,-594,1150,0
3910,-593,1148,0
3912,-596,1142,0
3909,-600,1139,0
3909,-600,1137,0
3908,-600,1137,0
3910,-597,1136,0
3906,-596,1134,0
3905,-598,1138,0
3903,-598,1140,0
3899,-596,1141,0
3896,-596,1144,0
3891,-590,1141,0
3886,-587,1135,0
3887,-585,1135,0
3889,-582,1134,0
3887,-577,1129,0
3886,-576,1127,0
3886,-577,1126,0
3888,-582,1129,0
3890,-588,1131,0
3896,-598,1133,0
3895,-597,1138,0
3896,-600,1140,0
3894,-598,1141,0
3893,-599,1141,0
3891,-599,1140,0
3894,-602,1143,0
3896,-599,1141,0
3897,-602,1133,0
3897,-599,1134,0
3896,-595,1135,0
3896,-594,1135,0
3891,-596,1133,0
3898,-598,1135,0
3899,-601,1134,0
3900,-596,1136,0
3900,-597,1135,0
3900,-594,1135,0
3908,-596,1134,0
3907,-599,1130,0
3909,-600,1132,0
3911,-604,1130,0
3911,-601,1124,0
3912,-603,1124,0
3911,-601,1124,0
3907,-598,1126,0
3904,-599,1123,0
3902,-598,1124,0
3896,-596,1122,0
3899,-591,1122,0
3893,-589,1123,0
3892,-588,1118,0
3896,-591,1118,0
3899,-594,1119,0
3902,-593,1117,0
3903,-593,1120,0
3905,-593,1119,0
3906,-593,1117,0
3907,-595,1119,0
3906,-594,1119,0
3903,-593,1120,0
3902,-593,1123,0
3905,-594,1126,0
3904,-591,1126,0
3902,-591,1123,0
3900,-590,1125,0
3898,-590,1125,0
3898,-590,1124,0
3898,-591,1125,0
3894,-589,1125,0
3894,-586,1122,0
3895,-591,1127,0
3893,-589,1131,0
3896,-592,1133,0
3900,-594,1135,0
3898,-594,1132,0
3898,-600,1129,0
3900,-601,1131,0
3904,-596,1126,0
3905,-594,1123,0
3903,-596,1122,0
3902,-595,1124,0
3903,-594,1125,0
3902,-596,1123,0
3904,-595,1126,0
3906,-596,1121,0
3908,-596,1122,0
3903,-597,1121,0
3897,-596,1120,0
3901,-595,1120,0
3901,-595,1122,0
3903,-591,1122,0
3904,-590,1124,0
3905,-590,1123,0
3901,-591,1123,0
3903,-595,1124,0
3904,-599,1124,0
3900,-598,1123,0
3902,-596,1126,0
3902,-595,1126,0
3905,-591,1131,0
3904,-590,1130,0
3903,-589,1130,0
3899,-588,1132,0
3896,-589,1132,0
3896,-588,1130,0
3896,-587,1132,0
3895,-586,1135,0
3897,-588,1134,0
3896,-589,1136,0
3899,-590,1137,0
3902,-590,1140,0
3897,-589,1137,0
3896,-589,1137,0
3895,-588,1139,0
3895,-587,1138,0
3897,-587,1138,0
3896,-587,1139,0
3896,-587,1143,0
3894,-588,1141,0
3893,-584,1145,0
3891,-582,1147,0
3892,-580,1142,0
3895,-580,1143,0
3897,-580,1144,0
3897,-581,1146,0
3898,-580,1144,0
3900,-580,1140,0
3902,-580,1137,0
3901,-582,1134,0
3896,-583,1132,0
3897,-585,1133,0
3896,-586,1135,0
3897,-589,1137,0
3896,-591,1137,0
3892,-591,1137,0
3893,-590,1134,0
3892,-592,1140,0
3894,-586,1138,0
3892,-586,1134,0
3894,-586,1136,0
3903,-587,1136,0
3901,-585,1139,0
3899,-584,1140,0
3898,-587,1137,0
3899,-587,1134,0
3901,-590,1135,0
3903,-594,1130,0
3905,-596,1130,0
3905,-599,1133,0
3904,-598,1130,0
3905,-596,1132,0
3903,-595,1136,0
3904,-594,1138,0
3905,-593,1145,0
3907,-597,1149,0
3905,-597,1146,0
3908,-602,1143,0
3907,-605,1144,0
3903,-609,1146,0
3906,-611,1147,0
3910,-613,1148,0
3904,-618,1146,0
3902,-619,1143,0
3902,-621,1140,0
3895,-619,1137,0
3899,-620,1134,0
3899,-616,1129,0
3901,-611,1130,0
3904,-603,1130,0
3905,-598,1134,0
3906,-593,1136,0
3905,-587,1136,0
3907,-583,1137,0
3904,-579,1136,0
3905,-574,1133,0
3901,-574,1132,0
3898,-568,1130,0
3897,-566,1132,0
3894,-566,1130,0
3891,-567,1129,0
3889,-570,1132,0
3892,-575,1136,0
3891,-577,1144,0
3891,-578,1146,0
3891,-580,1150,0
3888,-583,1152,0
3890,-581,1151,0
3893,-580,1148,0
3890,-578,1153,0
3890,-581,1151,0
3889,-583,1149,0
3893,-581,1147,0
3889,-577,1146,0
3889,-583,1150,0
3897,-579,1153,0
3898,-583,1155,0
3898,-585,1157,0
3901,-586,1156,0
3899,-585,1154,0
3902,-584,1157,0
3901,-583,1158,0
3902,-583,1159,0
3903,-586,1161,0
3902,-589,1160,0
3906,-591,1157,0
3906,-593,1156,0
3901,-596,1157,0
3895,-595,1152,0
3892,-591,1152,0
3892,-587,1152,0
3892,-590,1151,0
3891,-593,1149,0
3893,-592,1149,0
3895,-592,1149,0
3892,-592,1149,0
3894,-594,1146,0
3893,-595,1145,0
3891,-595,1151,0
3894,-592,1151,0
3890,-591,1151,0
3892,-590,1149,0
3893,-589,1151,0
3893,-591,1153,0
3893,-592,1151,0
3888,-593,1152,0
3887,-594,1149,0
3886,-594,1154,0
3889,-595,1154,0
3884,-594,1153,0
3881,-598,1149,0
3879,-598,1151,0
3883,-599,1157,0
3884,-600,1158,0
3883,-600,1162,0
3886,-597,1166,0
3888,-595,1164,0
3889,-595,1165,0
3890,-594,1166,0
3890,-595,1163,0
3895,-594,1160,0
3897,-594,1160,0
3897,-594,1155,0
3898,-594,1155,0
3900,-595,1149,0
3901,-595,1147,0
3900,-600,1140,0
3897,-600,1138,0
3896,-601,1137,0
3898,-599,1140,0
3898,-602,1142,0
3900,-598,1144,0
3900,-598,1143,0
3899,-601,1145,0
3894,-603,1151,0
3894,-601,1151,0
3893,-602,1150,0
3893,-602,1151,0
3888,-600,1152,0
3890,-599,1152,0
3893,-597,1151,0
3889,-598,1156,0
3890,-597,1153,0
3899,-601,1149,0
3898,-591,1150,0
3898,-593,1149,0
3896,-594,1148,0
3892,-594,1146,0
3893,-593,1148,0
3893,-595,1150,0
3895,-595,1149,0
3896,-597,1154,0
3895,-595,1155,0
3894,-594,1158,0
3895,-594,1158,0
3894,-595,1157,0
3897,-595,1162,0
3894,-593,1162,0
3891,-596,1160,0
3892,-593,1163,0
3890,-591,1164,0
3888,-591,1164,0
3887,-594,1163,0
3888,-593,1160,0
3889,-598,1161,0
3888,-599,1162,0
3891,-601,1160,0
3885,-597,1159,0
3883,-597,1154,0
3881,-592,1153,0
3885,-590,1151,0
3887,-590,1155,0
3885,-592,1156,0
3889,-591,1159,0
3893,-592,1158,0
3893,-594,1156,0
3895,-593,1153,0
3900,-595,1155,0
3898,-596,1151,0
3896,-596,1154,0
3896,-595,1159,0
3895,-600,1156,0
3894,-607,1153,0
3889,-609,1151,0
3891,-607,1155,0
3891,-611,1155,0
3888,-608,1155,0
3889,-605,1158,0
3888,-605,1161,0
3891,-601,1166,0
3896,-600,1167,0
3898,-595,1168,0
3894,-595,1163,0
3898,-599,1163,0
3895,-597,1156,0
3891,-598,1154,0
3890,-599,1149,0
3892,-598,1148,0
3891,-598,1153,0
3890,-596,1158,0
3887,-595,1165,0
3887,-591,1164,0
3888,-590,1167,0
3893,-589,1169,0
3897,-587,1169,0
3898,-590,1164,0
3905,-595,1166,0
3906,-597,1166,0
3901,-598,1162,0
3902,-599,1162,0
3901,-604,1161,0
3901,-604,1159,0
3902,-610,1159,0
3902,-614,1159,0
3900,-607,1161,0
3896,-604,1155,0
3894,-603,1156,0
3895,-601,1158,0
3890,-596,1165,0
3894,-593,1165,0
3891,-590,1167,0
3888,-593,1166,0
3885,-590,1164,0
3885,-585,1159,0
3885,-584,1156,0
3884,-585,1155,0
3882,-584,1153,0
3884,-585,1152,0
3884,-587,1156,0
3884,-590,1158,0
3885,-590,1156,0
3886,-597,1153,0
3885,-602,1156,0
3882,-605,1157,0
3880,-606,1160,0
3881,-609,1164,0
3882,-607,1166,0
3883,-607,1171,0
3885,-605,1169,0
3884,-608,1169,0
3885,-606,1169,0
3887,-605,1166,0
3889,-605,1167,0
3888,-604,1167,0
3890,-603,1168,0
3897,-606,1172,0
3900,-604,1170,0
3903,-604,1175,0
3898,-601,1174,0
3898,-604,1176,0
3898,-605,1173,0
3894,-607,1176,0
3894,-606,1173,0
3892,-608,1171,0
3892,-608,1172,0
3893,-601,1172,0
3888,-603,1168,0
3888,-601,1170,0
3885,-598,1169,0
3885,-593,1168,0
3884,-591,1168,0
3883,-589,1170,0
3882,-590,1168,0
3882,-587,1168,0
3883,-587,1170,0
3885,-589,1168,0
3885,-590,1167,0
3883,-588,1166,0
3883,-593,1167,0
3881,-592,1170,0
3883,-594,1174,0
3885,-596,1175,0
3883,-596,1176,0
3883,-600,1182,0
3883,-598,1182,0
3882,-597,1183,0
3883,-600,1183,0
3882,-598,1185,0
3882,-599,1183,0
3881,-598,1183,0
3883,-597,1185,0
3882,-596,1187,0
3881,-594,1190,0
3884,-595,1189,0
3882,-595,1187,0
3883,-594,1191,0
3886,-595,1187,0
3888,-597,1187,0
3892,-596,1186,0
3890,-597,1182,0
3890,-599,1180,0
3887,-598,1178,0
3889,-600,1179,0
3889,-602,1177,0
3887,-600,1175,0
3886,-600,1170,0
3884,-599,1173,0
3886,-599,1174,0
3884,-599,1175,0
3883,-599,1175,0
3882,-602,1175,0
3883,-603,1175,0
3886,-604,1177,0
3884,-602,1179,0
3882,-605,1181,0
3882,-604,1183,0
3880,-604,1184,0
3879,-607,1185,0
3878,-607,1186,0
3877,-606,1187,0
3881,-606,1184,0
3880,-605,1187,0
3885,-608,1186,0
3886,-609,1186,0
3885,-609,1187,0
3891,-610,1185,0
3888,-610,1183,0
3885,-609,1180,0
3887,-605,1177,0
3886,-603,1180,0
3887,-599,1179,0
3887,-600,1182,0
3884,-601,1181,0
3885,-602,1178,0
3884,-601,1184,0
3884,-600,1181,0
3881,-602,1183,0
3881,-601,1181,0
3878,-599,1183,0
3876,-599,1182,0
3878,-599,1181,0
3877,-601,1183,0
3881,-601,1180,0
3883,-601,1182,0
3883,-604,1180,0
3882,-602,1182,0
3882,-601,1182,0
3881,-605,1183,0
3881,-602,1181,0
3883,-596,1183,0
3884,-594,1184,0
3886,-589,1183,0
3883,-594,1182,0
3884,-595,1183,0
3883,-595,1185,0
3884,-595,1185,0
3884,-597,1182,0
3884,-593,1185,0
3885,-594,1186,0
3887,-594,1185,0
3894,-593,1186,0
3894,-593,1184,0
3894,-594,1182,0
3894,-598,1180,0
3897,-600,1181,0
3894,-600,1181,0
3890,-603,1179,0
3889,-605,1178,0
3887,-605,1181,0
3885,-605,1179,0
3884,-604,1177,0
3884,-600,1179,0
3884,-601,1183,0
3883,-606,1182,0
3881,-605,1184,0
3883,-604,1183,0
3883,-603,1182,0
3883,-599,1185,0
3882,-597,1185,0
3883,-596,1182,0
3885,-595,1181,0
3885,-596,1181,0
3884,-595,1176,0
3881,-598,1177,0
3879,-599,1178,0
3881,-597,1182,0
3880,-598,1187,0
3877,-599,1191,0
3880,-599,1190,0
3880,-597,1189,0
3882,-595,1189,0
3885,-596,1194,0
3889,-597,1195,0
3892,-597,1192,0
3893,-600,1191,0
3897,-603,1193,0
3901,-608,1190,0
3899,-614,1187,0
3898,-618,1182,0
3896,-621,1174,0
3893,-623,1175,0
3889,-617,1176,0
3887,-610,1182,0
3888,-607,1185,0
3885,-607,1190,0
3885,-604,1193,0
3881,-596,1196,0
3875,-595,1193,0
3871,-594,1190,0
3874,-593,1184,0
3870,-586,1182,0
3870,-585,1184,0
3872,-588,1184,0
3873,-589,1185,0
3871,-589,1184,0
3869,-588,1185,0
3869,-598,1182,0
3870,-602,1183,0
3875,-606,1186,0
3878,-610,1190,0
3878,-611,1195,0
3881,-610,1195,0
3877,-610,1196,0
3880,-605,1197,0
3882,-605,1196,0
3880,-603,1198,0
3880,-606,1200,0
3885,-605,1198,0
3885,-607,1203,0
3886,-604,1204,0
3890,-604,1205,0
3891,-603,1204,0
3889,-601,1204,0
3892,-601,1205,0
3889,-599,1205,0
3889,-598,1204,0
3888,-600,1203,0
3887,-602,1200,0
3895,-600,1200,0
3893,-602,1198,0
3891,-601,1193,0
3889,-600,1190,0
3892,-601,1188,0
3889,-601,1185,0
3888,-602,1182,0
3890,-604,1180,0
3895,-609,1181,0
3891,-608,1180,0
3886,-606,1177,0
3888,-602,1176,0
3884,-605,1176,0
3883,-605,1174,0
3883,-608,1174,0
3883,-609,1173,0
3883,-612,1172,0
3885,-615,1176,0
3888,-614,1176,0
3893,-614,1171,0
3894,-616,1172,0
3896,-620,1173,0
3890,-622,1173,0
3890,-619,1175,0
3886,-622,1177,0
3887,-627,1179,0
3890,-627,1187,0
3883,-624,1191,0
3877,-619,1190,0
3873,-619,1187,0
3867,-615,1194,0
3864,-615,1198,0
3861,-613,1200,0
3857,-609,1202,0
3856,-609,1206,0
3861,-604,1216,0
3867,-601,1221,0
3864,-595,1223,0
3859,-593,1220,0
3859,-591,1221,0
3857,-585,1225,0
3863,-581,1233,0
3865,-589,1231,0
3872,-586,1232,0
3878,-585,1232,0
3876,-584,1230,0
3878,-578,1234,0
3880,-579,1230,0
3875,-579,1227,0
3878,-582,1231,0
3879,-583,1231,0
3879,-581,1234,0
3877,-586,1233,0
3875,-588,1232,0
3873,-594,1235,0
3871,-598,1234,0
3872,-598,1238,0
3872,-601,1237,0
3875,-600,1239,0
3871,-600,1237,0
3866,-602,1232,0
3863,-605,1228,0
3862,-604,1228,0
3860,-605,1227,0
3860,-607,1225,0
3860,-611,1224,0
3857,-613,1221,0
3856,-614,1222,0
3858,-615,1221,0
3860,-621,1219,0
3863,-625,1219,0
3862,-621,1220,0
3861,-617,1218,0
3864,-617,1212,0
3866,-615,1213,0
3869,-614,1209,0
3872,-617,1210,0
3876,-615,1214,0
3880,-613,1213,0
3879,-612,1212,0
3878,-613,1207,0
3877,-611,1207,0
3878,-609,1202,0
3879,-612,1197,0
3872,-611,1197,0
3875,-608,1198,0
3875,-611,1197,0
3876,-619,1192,0
3879,-616,1188,0
3877,-611,1192,0
3876,-606,1195,0
3880,-612,1199,0
3880,-614,1197,0
3882,-607,1194,0
3884,-607,1195,0
3884,-608,1197,0
3885,-608,1197,0
3889,-613,1192,0
3892,-606,1191,0
3888,-603,1189,0
3891,-605,1190,0
3888,-605,1190,0
3891,-606,1191,0
3889,-606,1189,0
3887,-609,1189,0
3888,-612,1190,0
3884,-611,1189,0
3883,-612,1187,0
3879,-614,1185,0
3876,-614,1188,0
3872,-617,1188,0
3866,-616,1190,0
3862,-614,1194,0
3861,-611,1196,0
3865,-618,1192,0
3863,-611,1197,0
3866,-608,1202,0
3870,-608,1206,0
3870,-602,1207,0
3874,-601,1200,0
3878,-600,1195,0
3879,-595,1196,0
3881,-594,1191,0
3880,-596,1190,0
3881,-600,1190,0
3885,-606,1189,0
3887,-606,1193,0
3888,-608,1198,0
3890,-606,1202,0
3887,-607,1203,0
3884,-605,1205,0
3885,-604,1203,0
3888,-602,1199,0
3889,-595,1202,0
3890,-590,1200,0
3890,-591,1201,0
3897,-596,1195,0
3899,-594,1193,0
3901,-595,1189,0
3902,-600,1187,0
3896,-597,1185,0
3894,-606,1182,0
3891,-605,1177,0
3888,-599,1179,0
3888,-595,1181,0
3887,-596,1185,0
3884,-594,1187,0
3884,-594,1179,0
3883,-591,1178,0
3882,-587,1176,0
3879,-587,1173,0
3878,-583,1174,0
3874,-585,1171,0
3875,-590,1172,0
3875,-593,1173,0
3872,-598,1169,0
3871,-597,1172,0
3872,-603,1171,0
3873,-612,1173,0
3870,-616,1173,0
3873,-621,1173,0
3878,-623,1174,0
3881,-627,1171,0
3884,-626,1174,0
3885,-621,1175,0
3886,-619,1176,0
3888,-621,1174,0
3890,-624,1174,0
3888,-620,1174,0
3888,-613,1175,0
3887,-611,1177,0
3885,-607,1174,0
3889,-609,1170,0
3891,-606,1172,0
3890,-604,1176,0
3892,-609,1169,0
3895,-604,1169,0
3889,-600,1177,0
3894,-602,1169,0
3896,-604,1163,0
3896,-604,1162,0
3894,-604,1160,0
3893,-605,1160,0
3892,-605,1160,0
3889,-604,1163,0
3892,-607,1166,0
3891,-605,1168,0
3888,-605,1170,0
3887,-608,1168,0
3886,-609,1156,0
3884,-601,1160,0
3884,-591,1164,0
3885,-590,1161,0
3888,-599,1166,0
3891,-597,1173,0
3889,-594,1175,0
3892,-593,1176,0
3889,-592,1179,0
3888,-591,1176,0
3887,-587,1176,0
3886,-588,1172,0
3884,-587,1173,0
3887,-585,1172,0
3888,-585,1168,0
3877,-590,1167,0
3880,-602,1156,0
3884,-593,1159,0
3888,-574,1166,0
3888,-575,1176,0
3889,-580,1177,0
3885,-583,1173,0
3886,-583,1173,0
3885,-581,1171,0
3887,-587,1167,0
3893,-592,1165,0
3890,-588,1168,0
3891,-587,1167,0
3893,-591,1161,0
3894,-592,1158,0
3893,-591,1157,0
3892,-587,1155,0
3893,-591,1153,0
3895,-592,1157,0
3894,-595,1154,0
3893,-594,1151,0
3895,-594,1149,0
3893,-593,1149,0
3897,-595,1148,0
3899,-597,1149,0
3902,-599,1149,0
3902,-598,1148,0
3899,-600,1150,0
3896,-602,1151,0
3898,-597,1149,0
3892,-601,1149,0
3893,-601,1152,0
3892,-601,1152,0
3893,-600,1153,0
3890,-601,1152,0
3889,-602,1151,0
3890,-601,1154,0
3892,-601,1156,0
3891,-602,1157,0
3890,-603,1157,0
3888,-600,1159,0
3888,-601,1161,0
3887,-598,1161,0
3885,-596,1161,0
3884,-597,1163,0
3887,-596,1165,0
3886,-594,1167,0
3885,-597,1168,0
3880,-598,1168,0
3882,-597,1170,0
3878,-598,1171,0
3877,-595,1170,0
3882,-598,1172,0
3883,-600,1173,0
3882,-597,1168,0
3878,-594,1170,0
3878,-596,1170,0
3881,-596,1169,0
3880,-594,1172,0
3879,-594,1173,0
3880,-593,1173,0
3884,-592,1174,0
3885,-593,1177,0
3885,-596,1173,0
3893,-593,1171,0
3890,-589,1170,0
3890,-590,1169,0
3888,-588,1167,0
3893,-588,1168,0
3892,-591,1169,0
3889,-595,1170,0
3889,-595,1175,0
3888,-594,1174,0
3889,-593,1174,0
3887,-592,1170,0
3885,-593,1176,0
3886,-593,1170,0
3884,-591,1172,0
3879,-591,1170,0
3879,-591,1167,0
3879,-590,1165,0
3877,-589,1171,0
3878,-591,1170,0
3884,-594,1170,0
3887,-594,1167,0
3891,-595,1164,0
3894,-600,1164,0
3896,-598,1158,0
3892,-597,1158,0
3889,-598,1156,0
3887,-602,1157,0
3883,-605,1162,0
3884,-602,1164,0
3886,-600,1169,0
3886,-595,1175,0
3893,-589,1177,0
3900,-587,1181,0
3900,-583,1184,0
3901,-585,1182,0
3901,-579,1179,0
3903,-581,1177,0
3904,-583,1175,0
3904,-584,1173,0
3904,-586,1170,0
3905,-587,1164,0
3903,-591,1162,0
3899,-593,1156,0
3896,-594,1161,0
3893,-594,1158,0
3888,-595,1159,0
3887,-591,1161,0
3885,-593,1165,0
3883,-594,1168,0
3884,-595,1170,0
3883,-593,1168,0
3880,-590,1168,0
3881,-588,1164,0
3880,-583,1160,0
3880,-584,1159,0
3878,-584,1160,0
3880,-583,1161,0
3881,-586,1164,0
3881,-590,1167,0
3882,-593,1170,0
3884,-600,1174,0
3888,-602,1178,0
3885,-600,1177,0
3885,-604,1179,0
3883,-603,1180,0
3883,-602,1176,0
3881,-604,1176,0
3886,-603,1175,0
3892,-604,1172,0
3894,-606,1173,0
3896,-608,1174,0
3893,-606,1172,0
3891,-605,1171,0
3892,-602,1169,0
3892,-599,1172,0
3891,-597,1174,0
3892,-595,1175,0
3893,-596,1175,0
3896,-598,1172,0
3893,-599,1171,0
3891,-601,1169,0
3891,-602,1171,0
3889,-603,1171,0
3889,-602,1173,0
3885,-600,1172,0
3885,-597,1172,0
3885,-593,1174,0
3883,-588,1175,0
3882,-587,1170,0
3881,-585,1168,0
3881,-581,1169,0
3883,-579,1171,0
3880,-579,1171,0
3883,-582,1174,0
3884,-585,1175,0
3887,-586,1176,0
3889,-585,1178,0
3888,-585,1179,0
3890,-586,1185,0
3890,-589,1187,0
3885,-588,1184,0
3884,-586,1181,0
3882,-590,1180,0
3880,-591,1185,0
3881,-590,1187,0
3882,-589,1188,0
3881,-588,1187,0
3880,-588,1190,0
3880,-588,1187,0
3881,-588,1192,0
3883,-587,1189,0
3884,-588,1194,0
3881,-587,1192,0
3876,-585,1189,0
3879,-588,1193,0
3881,-589,1196,0
3888,-587,1197,0
3887,-589,1196,0
3895,-590,1193,0
3892,-589,1190,0
3896,-589,1191,0
3898,-591,1188,0
3890,-592,1183,0
3887,-587,1180,0
3884,-591,1175,0
3887,-594,1173,0
3885,-591,1173,0
3888,-596,1179,0
3890,-594,1177,0
3889,-593,1178,0
3891,-589,1179,0
3888,-588,1180,0
3888,-587,1179,0
3886,-585,1184,0
3885,-582,1185,0
3888,-582,1185,0
3888,-585,1186,0
3888,-582,1186,0
3884,-584,1191,0
3885,-582,1191,0
3888,-587,1189,0
3883,-581,1191,0
3878,-583,1189,0
3880,-589,1188,0
3881,-593,1188,0
3879,-594,1188,0
3879,-594,1190,0
3880,-595,1193,0
3881,-595,1191,0
3880,-597,1197,0
3882,-594,1197,0
3883,-591,1199,0
3882,-589,1202,0
3886,-587,1202,0
3883,-589,1200,0
3881,-587,1200,0
3880,-585,1198,0
3880,-586,1200,0
3877,-588,1200,0
3878,-588,1200,0
3880,-587,1200,0
3878,-590,1199,0
3878,-590,1196,0
3874,-585,1204,0
3876,-588,1201,0
3878,-591,1199,0
3879,-594,1199,0
3880,-593,1199,0
3879,-595,1200,0
3880,-595,1199,0
3879,-595,1199,0
3878,-594,1202,0
3881,-594,1201,0
3879,-593,1200,0
3881,-592,1197,0
3880,-591,1193,0
3882,-589,1193,0
3883,-591,1194,0
3883,-590,1194,0
3886,-591,1193,0
3889,-595,1192,0
3887,-593,1195,0
3887,-594,1196,0
3885,-597,1202,0
3885,-594,1198,0
3884,-596,1198,0
3885,-598,1195,0
3884,-598,1200,0
3884,-599,1200,0
3879,-598,1203,0
3879,-597,1205,0
3880,-595,1204,0
3883,-594,1204,0
3882,-591,1206,0
3883,-594,1202,0
3880,-599,1202,0
3880,-597,1199,0
3879,-596,1194,0
3877,-596,1188,0
3876,-597,1193,0
3872,-597,1195,0
3871,-599,1200,0
3871,-599,1204,0
3873,-597,1208,0
3874,-595,1211,0
3878,-594,1207,0
3882,-591,1208,0
3886,-591,1208,0
3893,-593,1208,0
3893,-595,1213,0
3896,-594,1213,0
3894,-597,1208,0
3896,-600,1207,0
3894,-602,1203,0
3892,-604,1197,0
3888,-605,1193,0
3883,-606,1190,0
3881,-601,1191,0
3877,-594,1193,0
3879,-593,1196,0
3877,-596,1198,0
3877,-596,1198,0
3877,-596,1197,0
3876,-593,1195,0
3872,-587,1192,0
3870,-586,1185,0
3871,-586,1182,0
3868,-583,1180,0
3869,-584,1183,0
3868,-585,1190,0
3867,-588,1191,0
3866,-592,1195,0
3867,-598,1197,0
3875,-600,1200,0
3873,-601,1201,0
3873,-603,1202,0
3876,-600,1203,0
3877,-604,1203,0
3878,-605,1204,0
3882,-602,1205,0
3882,-600,1206,0
3881,-596,1205,0
3881,-596,1205,0
3884,-599,1208,0
3886,-599,1209,0
3886,-600,1207,0
3884,-598,1211,0
3884,-593,1210,0
3885,-596,1209,0
3884,-598,1213,0
3886,-595,1212,0
3884,-595,1210,0
3880,-594,1213,0
3879,-595,1212,0
3878,-598,1204,0
3880,-596,1204,0
3872,-587,1209,0
3876,-596,1199,0
3880,-597,1196,0
3875,-590,1199,0
3877,-588,1204,0
3877,-592,1204,0
3875,-593,1198,0
3874,-592,1196,0
3875,-591,1197,0
3876,-587,1201,0
3872,-585,1201,0
3875,-585,1200,0
3873,-590,1201,0
3873,-594,1202,0
3873,-600,1203,0
3873,-599,1206,0
3866,-597,1209,0
3866,-599,1209,0
3869,-598,1209,0
3869,-597,1209,0
3875,-595,1214,0
3872,-593,1216,0
3875,-592,1216,0
3879,-589,1215,0
3881,-587,1218,0
3881,-590,1218,0
3880,-588,1215,0
3878,-588,1214,0
3877,-589,1213,0
3877,-586,1214,0
3878,-587,1212,0
3881,-590,1212,0
3880,-590,1214,0
3882,-591,1212,0
3884,-587,1213,0
3886,-594,1209,0
3882,-597,1207,0
3876,-594,1203,0
3876,-595,1204,0
3878,-594,1206,0
3879,-590,1204,0
3883,-589,1205,0
3882,-591,1207,0
3881,-589,1204,0
3881,-589,1204,0
3881,-589,1204,0
3880,-588,1203,0
3881,-588,1204,0
3880,-584,1202,0
3882,-586,1205,0
3880,-586,1204,0
3880,-588,1209,0
3879,-593,1209,0
3876,-594,1207,0
3875,-596,1208,0
3876,-595,1211,0
3875,-595,1215,0
3877,-597,1214,0
3877,-594,1213,0
3877,-595,1217,0
3877,-595,1221,0
3877,-598,1218,0
3878,-600,1215,0
3880,-598,1215,0
3877,-598,1214,0
3873,-599,1215,0
3875,-596,1216,0
3874,-597,1211,0
3880,-596,1213,0
3879,-596,1213,0
3875,-595,1213,0
3875,-596,1214,0
3872,-592,1212,0
3877,-590,1214,0
3875,-590,1214,0
3872,-588,1217,0
3871,-585,1213,0
3870,-586,1209,0
3872,-588,1212,0
3868,-589,1210,0
3866,-589,1209,0
3868,-586,1208,0
3867,-589,1210,0
3872,-593,1210,0
3869,-596,1212,0
3872,-601,1209,0
3873,-599,1212,0
3872,-602,1210,0
3876,-602,1211,0
3876,-604,1213,0
3875,-605,1210,0
3879,-602,1210,0
3877,-601,1213,0
3879,-604,1216,0
3880,-599,1214,0
3878,-600,1212,0
3881,-598,1213,0
3884,-598,1212,0
3882,-598,1212,0
3881,-595,1211,0
3882,-595,1210,0
3879,-596,1209,0
3878,-598,1207,0
3879,-600,1204,0
3881,-601,1204,0
3877,-606,1203,0
3874,-602,1205,0
3874,-601,1205,0
3877,-599,1205,0
3876,-601,1208,0
3870,-604,1208,0
3864,-603,1214,0
3863,-605,1217,0
3864,-606,1216,0
3865,-602,1214,0
3867,-602,1215,0
3866,-600,1217,0
3871,-596,1222,0
3875,-595,1224,0
3877,-593,1220,0
3876,-592,1217,0
3877,-596,1214,0
3875,-599,1213,0
3877,-604,1214,0
3876,-602,1211,0
3874,-601,1215,0
3873,-597,1223,0
3873,-599,1223,0
3868,-597,1225,0
3869,-595,1225,0
3876,-594,1225,0
3879,-595,1225,0
3880,-589,1222,0
3882,-590,1217,0
3885,-593,1216,0
3885,-598,1218,0
3888,-598,1219,0
3890,-600,1218,0
3891,-605,1215,0
3886,-609,1211,0
3878,-602,1215,0
3876,-614,1207,0
3875,-610,1205,0
3872,-602,1214,0
3869,-604,1217,0
3868,-600,1219,0
3866,-598,1219,0
3867,-598,1218,0
3867,-597,1216,0
3865,-597,1213,0
3861,-590,1215,0
3859,-584,1215,0
3861,-588,1212,0
3857,-587,1211,0
3861,-589,1214,0
3864,-591,1215,0
3862,-589,1216,0
3865,-588,1223,0
3869,-599,1221,0
3873,-608,1219,0
3877,-607,1217,0
3877,-600,1216,0
3877,-600,1220,0
3876,-601,1222,0
3877,-603,1223,0
3877,-602,1225,0
3874,-596,1224,0
3875,-597,1225,0
3873,-599,1228,0
3873,-603,1225,0
3872,-599,1225,0
3871,-600,1229,0
3870,-596,1228,0
3869,-599,1227,0
3867,-595,1228,0
3871,-592,1228,0
3876,-593,1229,0
3872,-595,1229,0
3873,-596,1222,0
3875,-596,1224,0
3877,-594,1220,0
3879,-597,1219,0
3877,-598,1218,0
3878,-595,1218,0
3875,-590,1218,0
3868,-584,1224,0
3869,-585,1219,0
3870,-586,1216,0
3871,-588,1217,0
3876,-582,1218,0
3875,-582,1221,0
3870,-586,1219,0
3872,-590,1220,0
3872,-588,1223,0
3872,-589,1222,0
3875,-591,1222,0
3874,-593,1220,0
3875,-598,1223,0
3869,-596,1226,0
3868,-599,1225,0
3873,-596,1227,0
3875,-595,1229,0
3871,-594,1229,0
3873,-595,1228,0
3873,-593,1227,0
3877,-594,1227,0
3876,-591,1225,0
3878,-588,1226,0
3875,-587,1225,0
3875,-585,1225,0
3874,-585,1225,0
3872,-589,1223,0
3876,-590,1221,0
3876,-590,1216,0
3876,-588,1213,0
3875,-586,1211,0
3875,-588,1209,0
3874,-588,1208,0
3878,-588,1210,0
3880,-586,1208,0
3882,-586,1208,0
3884,-586,1207,0
3882,-585,1208,0
3880,-584,1202,0
3878,-589,1200,0
3875,-591,1198,0
3874,-592,1197,0
3876,-594,1199,0
3872,-593,1198,0
3875,-591,1199,0
3877,-592,1200,0
3879,-593,1203,0
3882,-597,1203,0
3879,-600,1202,0
3880,-600,1202,0
3883,-598,1204,0
3884,-598,1208,0
3885,-598,1206,0
3881,-597,1206,0
3884,-595,1207,0
3883,-596,1207,0
3882,-594,1207,0
3881,-596,1210,0
3881,-595,1209,0
3880,-596,1205,0
3880,-595,1207,0
3875,-590,1210,0
3876,-589,1206,0
3876,-590,1206,0
3875,-594,1204,0
3874,-592,1206,0
3874,-587,1208,0
3875,-590,1208,0
3876,-587,1204,0
3878,-586,1205,0
3878,-587,1205,0
3879,-583,1200,0
3882,-581,1201,0
3882,-580,1202,0
3880,-580,1201,0
3877,-577,1200,0
3878,-577,1203,0
3878,-575,1203,0
3877,-573,1201,0
3876,-573,1197,0
3878,-573,1199,0
3880,-575,1199,0
3879,-577,1200,0
3880,-581,1199,0
3881,-579,1199,0
3884,-579,1198,0
3884,-584,1198,0
3884,-585,1194,0
3882,-587,1196,0
3884,-590,1194,0
3883,-588,1193,0
3884,-589,1193,0
3884,-587,1193,0
3883,-587,1195,0
3883,-586,1191,0
3883,-583,1191,0
3882,-581,1191,0
3884,-576,1191,0
3886,-572,1191,0
3887,-569,1189,0
3890,-570,1186,0
3886,-570,1188,0
3888,-570,1189,0
3890,-573,1187,0
3894,-576,1184,0
3892,-574,1183,0
3890,-575,1183,0
3886,-577,1182,0
3886,-583,1183,0
3885,-583,1182,0
3885,-583,1183,0
3882,-588,1182,0
3880,-586,1184,0
3881,-585,1187,0
3883,-587,1188,0
3882,-588,1189,0
3881,-586,1188,0
3884,-583,1190,0
3886,-579,1192,0
3885,-581,1194,0
3884,-583,1193,0
3884,-580,1185,0
3886,-581,1182,0
3887,-580,1180,0
3884,-581,1183,0
3883,-583,1181,0
3883,-585,1179,0
3882,-586,1180,0
3881,-586,1190,0
3881,-581,1197,0
3885,-584,1203,0
3885,-579,1202,0
3886,-576,1203,0
3891,-577,1201,0
3893,-581,1195,0
3893,-578,1192,0
3897,-578,1193,0
3901,-578,1191,0
3902,-579,1190,0
3904,-577,1185,0
3908,-578,1182,0
3904,-577,1178,0
3900,-577,1175,0
3898,-576,1175,0
3894,-577,1170,0
3890,-574,1174,0
3889,-573,1175,0
3883,-574,1180,0
3880,-570,1185,0
3879,-571,1181,0
3878,-573,1180,0
3877,-574,1179,0
3874,-572,1175,0
3872,-572,1176,0
3874,-571,1176,0
3876,-571,1178,0
3876,-575,1180,0
3878,-578,1179,0
3879,-580,1182,0
3880,-584,1187,0
3881,-586,1185,0
3881,-587,1187,0
3885,-586,1189,0
3882,-583,1190,0
3880,-581,1190,0
3883,-584,1187,0
3884,-584,1185,0
3885,-585,1185,0
3887,-583,1187,0
3887,-581,1184,0
3889,-577,1181,0
3890,-581,1181,0
3889,-582,1183,0
3894,-583,1181,0
3893,-581,1182,0
3890,-583,1178,0
3892,-585,1178,0
3890,-588,1179,0
3890,-589,1176,0
3893,-589,1177,0
3898,-585,1175,0
3895,-587,1173,0
3893,-585,1169,0
3895,-586,1169,0
3895,-588,1168,0
3896,-586,1171,0
3891,-582,1172,0
3885,-578,1171,0
3883,-575,1169,0
3880,-573,1167,0
3878,-572,1169,0
3878,-575,1172,0
3879,-575,1168,0
3881,-575,1168,0
3881,-577,1167,0
3881,-582,1171,0
3883,-582,1168,0
3885,-582,1169,0
3879,-578,1171,0
3884,-581,1173,0
3883,-580,1174,0
3889,-579,1175,0
3889,-575,1177,0
3887,-576,1178,0
3890,-572,1179,0
3892,-577,1181,0
3889,-575,1185,0
3890,-573,1188,0
3889,-573,1189,0
3886,-570,1190,0
3885,-570,1188,0
3890,-570,1186,0
3890,-572,1186,0
3889,-572,1186,0
3889,-572,1187,0
3885,-572,1186,0
3886,-572,1184,0
3885,-573,1179,0
3886,-572,1176,0
3886,-575,1174,0
3889,-575,1173,0
3889,-576,1173,0
3886,-575,1169,0
3889,-577,1169,0
3887,-575,1169,0
3889,-569,1170,0
3890,-568,1170,0
3890,-568,1176,0
3890,-568,1177,0
3890,-565,1175,0
3889,-567,1175,0
3885,-572,1177,0
3887,-572,1180,0
3885,-572,1180,0
3887,-573,1181,0
3892,-573,1184,0
3890,-574,1182,0
3890,-576,1185,0
3891,-577,1186,0
3890,-577,1188,0
3893,-577,1187,0
3898,-573,1187,0
3899,-574,1184,0
3898,-571,1183,0
3892,-571,1184,0
3892,-577,1184,0
3890,-573,1187,0
3889,-573,1185,0
3887,-572,1185,0
3889,-572,1187,0
3886,-571,1182,0
3883,-572,1187,0
3884,-576,1189,0
3882,-575,1189,0
3883,-576,1190,0
3883,-576,1191,0
3883,-576,1191,0
3884,-574,1190,0
3883,-575,1191,0
3884,-575,1189,0
3881,-576,1191,0
3879,-578,1192,0
3880,-578,1194,0
3884,-577,1192,0
3885,-578,1191,0
3886,-580,1194,0
3885,-574,1194,0
3885,-570,1193,0
3884,-571,1195,0
3883,-568,1197,0
3883,-568,1194,0
3883,-571,1194,0
3885,-571,1192,0
3885,-567,1192,0
3887,-569,1191,0
3886,-568,1192,0
3887,-568,1195,0
3888,-571,1194,0
3887,-569,1194,0
3889,-570,1192,0
3893,-567,1190,0
3893,-567,1188,0
3894,-567,1187,0
3892,-573,1190,0
3889,-573,1188,0
3889,-574,1186,0
3891,-572,1189,0
3890,-574,1188,0
3888,-570,1188,0
3883,-572,1188,0
3882,-574,1190,0
3884,-572,1190,0
3881,-574,1192,0
3882,-572,1194,0
3878,-571,1194,0
3877,-567,1197,0
3877,-567,1198,0
3883,-567,1196,0
3887,-566,1196,0
3888,-569,1196,0
3888,-571,1195,0
3890,-571,1189,0
3891,-575,1188,0
3889,-579,1188,0
3888,-580,1192,0
3887,-580,1195,0
3890,-579,1194,0
3887,-577,1198,0
3885,-572,1200,0
3889,-566,1202,0
3895,-567,1207,0
3896,-562,1209,0
3893,-564,1207,0
3891,-566,1203,0
3888,-569,1201,0
3889,-575,1202,0
3895,-575,1204,0
3891,-583,1202,0
3892,-585,1199,0
3893,-587,1194,0
3894,-586,1191,0
3893,-586,1187,0
3892,-585,1190,0
3888,-582,1189,0
3887,-582,1194,0
3886,-581,1196,0
3882,-582,1196,0
3877,-581,1193,0
3877,-580,1194,0
3875,-582,1193,0
3873,-582,1194,0
3872,-579,1193,0
3871,-576,1193,0
3869,-576,1194,0
3868,-576,1193,0
3867,-575,1193,0
3868,-575,1196,0
3871,-579,1198,0
3872,-584,1200,0
3878,-587,1203,0
3880,-590,1203,0
3879,-590,1204,0
3879,-587,1208,0
3879,-583,1208,0
3880,-581,1205,0
3879,-581,1208,0
3878,-577,1207,0
3876,-576,1210,0
3877,-573,1208,0
3878,-575,1210,0
3878,-573,1209,0
3882,-575,1210,0
3882,-577,1210,0
3878,-581,1212,0
3878,-582,1212,0
3880,-581,1213,0
3882,-583,1215,0
3879,-583,1213,0
3882,-586,1214,0
3879,-588,1212,0
3877,-588,1209,0
3874,-586,1209,0
3876,-583,1210,0
3876,-583,1213,0
3874,-583,1213,0
3872,-579,1213,0
3871,-577,1213,0
3872,-574,1211,0
3874,-574,1208,0
3873,-569,1205,0
3873,-569,1209,0
3874,-570,1209,0
3876,-574,1211,0
3877,-576,1208,0
3876,-579,1208,0
3876,-581,1204,0
3876,-583,1204,0
3874,-581,1203,0
3876,-578,1202,0
3874,-580,1202,0
3875,-579,1207,0
3877,-583,1208,0
3877,-582,1206,0
3881,-583,1208,0
3883,-582,1209,0
3881,-584,1210,0
3881,-584,1209,0
3878,-586,1199,0
3878,-587,1199,0
3878,-589,1201,0
3878,-592,1200,0
3878,-595,1197,0
3875,-595,1196,0
3876,-592,1195,0
3877,-590,1200,0
3877,-592,1202,0
3875,-593,1199,0
3881,-591,1196,0
3882,-593,1196,0
3881,-599,1195,0
3880,-602,1192,0
3875,-600,1187,0
3871,-600,1189,0
3872,-603,1189,0
3870,-603,1187,0
3868,-600,1189,0
3872,-595,1192,0
3875,-598,1193,0
3876,-599,1192,0
3874,-601,1194,0
3869,-600,1192,0
3866,-603,1192,0
3861,-601,1189,0
3859,-606,1190,0
3857,-605,1191,0
3855,-603,1189,0
3854,-608,1190,0
3852,-603,1190,0
3856,-599,1195,0
3854,-598,1200,0
3851,-599,1206,0
3850,-599,1205,0
3847,-596,1209,0
3841,-597,1217,0
3832,-597,1226,0
3826,-595,1230,0
3816,-589,1236,0
3801,-589,1231,0
3794,-594,1222,0
3783,-587,1216,0
3780,-586,1202,0
3775,-586,1193,0
3773,-584,1189,0
3783,-599,1184,0
3791,-606,1177,0
3807,-603,1177,0
3821,-590,1185,0
3826,-601,1193,0
3833,-607,1197,0
3843,-613,1195,0
3854,-621,1192,0
3854,-630,1183,0
3852,-642,1182,0
3860,-656,1183,0
3869,-658,1184,0
3883,-665,1185,0
3897,-660,1189,0
3893,-663,1188,0
3891,-667,1184,0
3896,-668,1173,0
3897,-662,1165,0
3905,-667,1165,0
3910,-657,1179,0
3916,-646,1176,0
3912,-654,1153,0
3905,-652,1133,0
3884,-645,1113,0
3879,-651,1108,0
3872,-645,1108,0
3863,-649,1105,0
3844,-648,1093,0
3854,-660,1092,0
3851,-644,1096,0
3853,-659,1092,0
3832,-648,1081,0
3820,-667,1074,0
3803,-670,1073,0
3789,-685,1070,0
3769,-702,1055,0
3763,-722,1049,0
3775,-743,1041,0
3788,-750,1037,0
3797,-763,1031,0
3805,-770,1020,0
3819,-786,1018,0
3836,-797,1010,0
3854,-808,997,0
3875,-821,979,0
3892,-827,972,0
3905,-834,963,0
3915,-838,958,0
3920,-851,946,0
3922,-845,938,0
3929,-848,938,0
3935,-847,941,0
3927,-846,945,0
3922,-839,952,0
3914,-834,957,0
3904,-836,964,0
3895,-843,961,0
3871,-838,954,0
3834,-830,932,0
3798,-826,907,0
3751,-821,883,0
3703,-810,875,0
3662,-785,885,0
3631,-768,911,0
3610,-768,947,0
3600,-777,985,0
3584,-782,1009,0
3577,-796,1025,0
3580,-815,1037,0
3577,-830,1025,0
3576,-857,1002,0
3575,-876,978,0
3587,-890,953,0
3607,-895,941,0
3655,-920,931,0
3706,-933,921,0
3771,-948,906,0
3836,-948,889,0
3907,-952,870,0
3977,-960,854,0
4029,-953,841,0
4068,-939,853,0
4089,-921,862,0
4100,-904,861,0
4101,-868,858,0
4100,-830,848,0
4093,-808,826,0
4079,-791,805,0
4056,-798,786,0
4023,-802,776,0
3989,-810,781,0
3949,-808,787,0
3912,-818,782,0
3879,-830,763,0
3847,-834,733,0
3831,-854,711,0
3834,-889,701,0
3859,-926,716,0
3901,-944,736,0
3956,-970,726,0
4013,-1014,655,0
4063,-1074,548,0
4119,-1143,418,0
4190,-1234,275,0
4270,-1331,140,0
4365,-1427,30,0
4476,-1521,-85,0
4619,-1647,-206,0
4803,-1758,-309,0
5022,-1867,-385,0
5234,-1951,-423,0
5427,-2053,-453,0
5549,-2167,-520,0
5590,-2313,-619,0
5540,-2472,-774,0
5429,-2579,-898,0
5284,-2637,-963,0
5137,-2682,-954,0
4999,-2727,-927,0
4853,-2774,-914,0
4711,-2796,-906,0
4563,-2832,-934,0
4415,-2832,-960,0
4302,-2835,-1000,0
4231,-2847,-1025,0
4191,-2856,-1015,0
4173,-2842,-971,0
4174,-2834,-921,0
4177,-2840,-895,0
4175,-2834,-874,0
4177,-2814,-858,0
4180,-2769,-858,0
4186,-2722,-879,0
4191,-2670,-924,0
4197,-2631,-987,0
4194,-2570,-1039,0
4187,-2505,-1089,0
4165,-2416,-1120,0
4141,-2329,-1143,0
4124,-2262,-1168,0
4111,-2213,-1182,0
4091,-2191,-1194,0
4068,-2191,-1194,0
4039,-2190,-1173,0
4013,-2209,-1158,0
3980,-2238,-1153,0
3945,-2274,-1135,0
3913,-2317,-1118,0
3878,-2348,-1101,0
3849,-2357,-1061,0
3827,-2383,-1041,0
3806,-2407,-1042,0
3779,-2412,-1047,0
3760,-2413,-1053,0
3745,-2409,-1068,0
3733,-2396,-1080,0
3730,-2376,-1090,0
3741,-2356,-1099,0
3759,-2321,-1098,0
3781,-2286,-1098,0
3809,-2257,-1102,0
3837,-2230,-1108,0
3858,-2206,-1110,0
3873,-2198,-1114,0
3876,-2192,-1114,0
3871,-2182,-1110,0
3852,-2174,-1105,0
3830,-2165,-1098,0
3801,-2170,-1094,0
3774,-2182,-1092,0
3745,-2192,-1088,0
3713,-2192,-1076,0
3685,-2183,-1051,0
3664,-2167,-1025,0
3637,-2140,-1001,0
3607,-2123,-967,0
3583,-2107,-945,0
3562,-2078,-920,0
3534,-2049,-910,0
3513,-2021,-897,0
3495,-2007,-888,0
3473,-2003,-880,0
3463,-1989,-875,0
3462,-1980,-864,0
3465,-1984,-862,0
3466,-1985,-853,0
3469,-1992,-862,0
3468,-1989,-872,0
3468,-1981,-869,0
3472,-1983,-881,0
3476,-1974,-876,0
3464,-1970,-859,0
3459,-1966,-846,0
3466,-1970,-840,0
3481,-1978,-833,0
3499,-1975,-811,0
3511,-1954,-794,0
3512,-1926,-787,0
3514,-1902,-794,0
3517,-1913,-800,0
3505,-1922,-809,0
3486,-1914,-817,0
3461,-1891,-811,0
3449,-1868,-789,0
3433,-1844,-777,0
3428,-1830,-771,0
3428,-1820,-759,0
3433,-1815,-741,0
3436,-1798,-723,0
3433,-1785,-724,0
3431,-1775,-731,0
3426,-1771,-733,0
3426,-1765,-728,0
3425,-1765,-725,0
3429,-1761,-719,0
3430,-1760,-704,0
3444,-1763,-681,0
3454,-1761,-667,0
3457,-1762,-661,0
3456,-1767,-662,0
3448,-1773,-664,0
3438,-1764,-658,0
3414,-1755,-666,0
3379,-1744,-678,0
3342,-1730,-686,0
3305,-1715,-682,0
3288,-1691,-671,0
3272,-1664,-653,0
3260,-1642,-626,0
3264,-1630,-592,0
3270,-1627,-556,0
3277,-1621,-530,0
3280,-1632,-510,0
3275,-1644,-498,0
3261,-1657,-493,0
3246,-1651,-489,0
3225,-1650,-497,0
3212,-1637,-495,0
3201,-1610,-502,0
3191,-1579,-512,0
3183,-1547,-517,0
3181,-1523,-519,0
3176,-1499,-530,0
3162,-1475,-540,0
3157,-1457,-533,0
3147,-1434,-523,0
3140,-1407,-490,0
3147,-1381,-451,0
3158,-1359,-414,0
3173,-1340,-383,0
3191,-1320,-350,0
3206,-1311,-327,0
3221,-1313,-301,0
3228,-1320,-275,0
3228,-1320,-263,0
3229,-1338,-268,0
3232,-1350,-271,0
3236,-1355,-280,0
3245,-1364,-306,0
3259,-1374,-330,0
3274,-1378,-345,0
3283,-1380,-362,0
3296,-1380,-381,0
3301,-1389,-407,0
3300,-1381,-439,0
3290,-1366,-469,0
3269,-1337,-497,0
3240,-1296,-523,0
3213,-1248,-542,0
3183,-1190,-557,0
3154,-1120,-566,0
3128,-1057,-571,0
3105,-1021,-577,0
3083,-998,-576,0
3060,-991,-555,0
3046,-1005,-519,0
3046,-1031,-483,0
3050,-1071,-451,0
3062,-1133,-426,0
3085,-1202,-399,0
3114,-1272,-351,0
3148,-1351,-294,0
3191,-1429,-225,0
3234,-1509,-149,0
3280,-1573,-74,0
3329,-1637,-19,0
3373,-1693,23,0
3411,-1735,58,0
3443,-1767,83,0
3471,-1794,90,0
3498,-1800,86,0
3523,-1780,76,0
3545,-1729,61,0
3566,-1655,37,0
3580,-1574,9,0
3592,-1498,-25,0
3594,-1420,-60,0
3592,-1340,-86,0
3605,-1262,-86,0
3621,-1190,-82,0
3642,-1103,-63,0
3679,-1024,-28,0
3725,-951,4,0
3773,-888,26,0
3834,-845,33,0
3891,-807,36,0
3934,-789,22,0
3978,-785,13,0
4029,-792,-4,0
4067,-810,-7,0
4108,-832,-5,0
4144,-849,7,0
4169,-858,35,0
4172,-871,62,0
4176,-884,74,0
4163,-895,85,0
4135,-898,109,0
4105,-903,136,0
4064,-924,151,0
4021,-928,193,0
3976,-911,248,0
3927,-893,294,0
3888,-893,331,0
3863,-898,369,0
3847,-899,403,0
3829,-897,420,0
3808,-905,420,0
3792,-914,404,0
3779,-917,384,0
3769,-911,362,0
3770,-899,349,0
3782,-883,355,0
3807,-869,371,0
3831,-848,374,0
3842,-824,367,0
3846,-803,342,0
3844,-788,305,0
3836,-781,266,0
3832,-773,242,0
3843,-767,238,0
3863,-754,254,0
3892,-748,273,0
3932,-748,300,0
3964,-757,320,0
3997,-783,325,0
4030,-813,324,0
4054,-847,318,0
4077,-879,322,0
4083,-916,318,0
4090,-954,304,0
4090,-985,295,0
4081,-1020,286,0
4067,-1056,286,0
4046,-1081,282,0
4018,-1098,279,0
3993,-1116,282,0
3968,-1142,280,0
3946,-1166,284,0
3926,-1187,295,0
3919,-1213,304,0
3924,-1247,313,0
3944,-1280,328,0
3967,-1316,352,0
3992,-1356,369,0
4023,-1390,376,0
4057,-1420,378,0
4088,-1445,374,0
4122,-1454,379,0
4147,-1439,390,0
4163,-1410,395,0
4160,-1351,405,0
4143,-1269,420,0
4119,-1196,427,0
4090,-1129,426,0
4060,-1061,429,0
4041,-997,424,0
4024,-926,433,0
4016,-852,447,0
4011,-790,443,0
4008,-737,431,0
4009,-679,443,0
4009,-610,457,0
4003,-549,464,0
3987,-496,461,0
3966,-460,456,0
3946,-426,444,0
3930,-402,432,0
3924,-393,416,0
3930,-389,415,0
3943,-388,424,0
3966,-407,431,0
3984,-434,434,0
3996,-464,438,0
4006,-498,441,0
4006,-515,454,0
4006,-529,470,0
4006,-552,481,0
4005,-588,492,0
4008,-625,505,0
4007,-670,510,0
4003,-713,516,0
3999,-748,504,0
3988,-780,492,0
3974,-809,474,0
3957,-839,459,0
3949,-873,440,0
3942,-904,426,0
3944,-933,422,0
3951,-969,423,0
3962,-1002,426,0
3983,-1038,444,0
4003,-1074,462,0
4024,-1108,475,0
4039,-1141,472,0
4050,-1174,462,0
4061,-1199,444,0
4070,-1211,429,0
4075,-1217,427,0
4084,-1210,425,0
4093,-1203,425,0
4099,-1189,428,0
4100,-1168,433,0
4100,-1142,438,0
4095,-1111,446,0
4087,-1078,453,0
4065,-1043,451,0
4046,-1010,461,0
4026,-970,466,0
3998,-929,472,0
3969,-891,470,0
3941,-862,464,0
3920,-839,462,0
3906,-813,465,0
3886,-797,462,0
3873,-793,455,0
3869,-802,448,0
3872,-810,440,0
3886,-822,433,0
3896,-836,423,0
3913,-854,414,0
3923,-865,409,0
3931,-878,408,0
3930,-887,413,0
3927,-890,418,0
3923,-896,418,0
3923,-903,420,0
3925,-910,423,0
3927,-917,429,0
3923,-920,432,0
3917,-922,433,0
3913,-911,434,0
3904,-905,433,0
3899,-897,437,0
3899,-891,439,0
3896,-884,447,0
3898,-883,449,0
3899,-885,449,0
3893,-894,449,0
3891,-899,448,0
3894,-897,451,0
3894,-890,456,0
3896,-883,461,0
3899,-872,458,0
3899,-867,446,0
3899,-859,436,0
3898,-850,422,0
3902,-836,408,0
3913,-828,394,0
3933,-823,384,0
3953,-822,379,0
3979,-824,377,0
4007,-825,372,0
4037,-831,367,0
4062,-835,370,0
4078,-840,373,0
4090,-850,377,0
4096,-854,378,0
4098,-852,379,0
4096,-855,383,0
4085,-851,387,0
4069,-849,393,0
4053,-851,390,0
4038,-853,386,0
4028,-852,377,0
4018,-848,380,0
4008,-833,381,0
3994,-821,381,0
3981,-811,374,0
3975,-804,362,0
3969,-797,354,0
3963,-788,345,0
3971,-784,341,0
3982,-772,348,0
3994,-761,358,0
4008,-750,371,0
4022,-736,379,0
4032,-725,381,0
4042,-708,389,0
4048,-700,390,0
4064,-700,397,0
4078,-707,410,0
4093,-713,428,0
4098,-708,433,0
4099,-715,435,0
4097,-720,439,0
4093,-729,441,0
4086,-733,444,0
4078,-736,435,0
4067,-738,426,0
4060,-737,421,0
4059,-742,415,0
4058,-743,414,0
4048,-737,408,0
4037,-739,402,0
4025,-745,392,0
4011,-751,378,0
4000,-761,375,0
3991,-765,372,0
3986,-770,373,0
3983,-774,373,0
3982,-781,375,0
3994,-787,371,0
4012,-795,362,0
4033,-802,357,0
4052,-808,351,0
4074,-798,348,0
4087,-804,335,0
4096,-823,332,0
4100,-851,324,0
4100,-869,309,0
4093,-878,296,0
4081,-891,287,0
4070,-901,278,0
4058,-911,269,0
4051,-920,257,0
4044,-923,246,0
4035,-930,234,0
4034,-930,219,0
4037,-936,217,0
4038,-935,221,0
4043,-932,224,0
4044,-930,225,0
4049,-934,225,0
4051,-921,233,0
4056,-911,238,0
4062,-901,240,0
4063,-888,250,0
4063,-872,244,0
4062,-855,241,0
4061,-838,234,0
4062,-822,234,0
4066,-813,232,0
4067,-811,223,0
4072,-813,220,0
4075,-807,218,0
4077,-802,218,0
4077,-803,216,0
4074,-806,215,0
4069,-812,217,0
4059,-818,222,0
4052,-830,221,0
4046,-837,223,0
4039,-843,222,0
4038,-860,222,0
4035,-873,220,0
4030,-879,222,0
4022,-875,222,0
4022,-871,226,0
4022,-870,235,0
4020,-865,240,0
4018,-860,248,0
4016,-858,250,0
4005,-847,250,0
3998,-841,249,0
3986,-828,252,0
3976,-818,253,0
3964,-807,257,0
3955,-798,262,0
3951,-791,266,0
3949,-786,267,0
3949,-779,269,0
3951,-777,272,0
3961,-773,273,0
3969,-771,270,0
3974,-760,268,0
3989,-754,275,0
4001,-763,269,0
4012,-767,264,0
4017,-766,266,0
4023,-763,269,0
4024,-760,269,0
4027,-754,278,0
4031,-750,286,0
4039,-752,293,0
4048,-767,292,0
4061,-783,294,0
4071,-784,293,0
4078,-785,292,0
4082,-786,284,0
4082,-793,273,0
4078,-796,267,0
4082,-803,271,0
4087,-803,278,0
4085,-807,280,0
4091,-812,278,0
4095,-822,277,0
4098,-830,276,0
4098,-840,273,0
4098,-850,271,0
4097,-872,269,0
4095,-891,272,0
4085,-908,272,0
4075,-920,266,0
4072,-938,260,0
4069,-957,251,0
4069,-969,246,0
4070,-976,242,0
4071,-989,245,0
4072,-1005,238,0
4075,-1023,238,0
4080,-1034,243,0
4079,-1039,248,0
4080,-1039,254,0
4076,-1043,259,0
4074,-1045,263,0
4072,-1040,265,0
4068,-1023,274,0
4068,-1000,284,0
4065,-979,298,0
4058,-961,315,0
4045,-939,325,0
4027,-921,324,0
4003,-900,324,0
3980,-879,321,0
3958,-857,318,0
3938,-841,314,0
3925,-819,316,0
3913,-791,331,0
3908,-770,347,0
3908,-757,364,0
3911,-750,381,0
3914,-750,383,0
3917,-763,389,0
3919,-779,392,0
3920,-791,399,0
3927,-803,401,0
3934,-811,412,0
3942,-819,415,0
3949,-826,418,0
3964,-838,424,0
3971,-850,421,0
3978,-867,415,0
3988,-881,411,0
3992,-889,415,0
3990,-899,414,0
3986,-902,416,0
3983,-903,420,0
3976,-903,424,0
3972,-903,423,0
3968,-898,420,0
3969,-888,417,0
3968,-875,415,0
3965,-861,416,0
3959,-850,416,0
3958,-839,409,0
3949,-824,408,0
3944,-812,402,0
3936,-803,401,0
3926,-799,399,0
3922,-791,398,0
3925,-782,400,0
3928,-774,403,0
3932,-772,407,0
3940,-761,407,0
3949,-752,402,0
3956,-737,395,0
3961,-730,388,0
3960,-721,379,0
3966,-721,369,0
3973,-719,363,0
3981,-721,356,0
3988,-723,355,0
3997,-725,352,0
4005,-734,349,0
4014,-741,350,0
4021,-752,356,0
4026,-763,355,0
4032,-769,350,0
4036,-784,359,0
4039,-800,359,0
4036,-812,354,0
4036,-828,352,0
4034,-840,346,0
4029,-849,339,0
4021,-858,338,0
4011,-864,330,0
4006,-870,328,0
4005,-876,328,0
4008,-884,326,0
4006,-889,331,0
4010,-889,329,0
4021,-887,333,0
4026,-889,335,0
4033,-890,336,0
4039,-887,332,0
4043,-889,333,0
4053,-888,337,0
4053,-883,339,0
4050,-875,340,0
4051,-870,341,0
4054,-862,348,0
4051,-852,352,0
4049,-849,361,0
4045,-848,370,0
4042,-844,377,0
4040,-840,377,0
4039,-833,382,0
4038,-824,392,0
4041,-814,399,0
4038,-807,400,0
4036,-800,399,0
4026,-789,397,0
4018,-783,383,0
4010,-772,371,0
3990,-761,364,0
3975,-751,357,0
3960,-746,347,0
3947,-736,340,0
3943,-733,344,0
3941,-729,350,0
3939,-728,348,0
3945,-728,347,0
3952,-734,348,0
3970,-741,353,0
3985,-748,359,0
3993,-759,362,0
4004,-767,362,0
4020,-785,352,0
4037,-803,340,0
4053,-816,328,0
4054,-831,325,0
4057,-848,327,0
4064,-854,314,0
4058,-856,307,0
4053,-846,305,0
4044,-848,301,0
4041,-851,292,0
4032,-863,280,0
4030,-878,273,0
4026,-892,266,0
4020,-891,262,0
4019,-887,258,0
4018,-882,246,0
4018,-880,237,0
4021,-878,231,0
4026,-877,226,0
4033,-872,228,0
4042,-877,239,0
4055,-887,243,0
4067,-902,255,0
4074,-918,268,0
4075,-933,278,0
4076,-945,290,0
4073,-951,299,0
4061,-947,307,0
4049,-927,314,0
4033,-899,317,0
4023,-875,320,0
4009,-864,318,0
4004,-860,316,0
4003,-857,321,0
4003,-857,321,0
4002,-853,323,0
3994,-851,318,0
3987,-854,318,0
3981,-855,316,0
3975,-852,318,0
3963,-848,312,0
3960,-850,310,0
3951,-837,310,0
3949,-838,304,0
3950,-835,299,0
3950,-837,291,0
3960,-844,292,0
3972,-855,292,0
3982,-866,290,0
3993,-875,288,0
4001,-873,296,0
4006,-871,301,0
4008,-868,300,0
4014,-867,292,0
4012,-863,283,0
4014,-861,278,0
4022,-851,276,0
4028,-852,278,0
4038,-854,270,0
4050,-852,268,0
4059,-847,268,0
4067,-840,266,0
4072,-834,267,0
4074,-830,264,0
4070,-820,264,0
4067,-822,265,0
4061,-825,263,0
4055,-829,262,0
4047,-835,267,0
4038,-836,265,0
4022,-841,261,0
4003,-850,253,0
3990,-859,244,0
3982,-866,245,0
3971,-875,241,0
3966,-883,239,0
3970,-891,242,0
3974,-896,250,0
3987,-900,256,0
4001,-906,264,0
4009,-914,273,0
4022,-925,275,0
4029,-933,274,0
4037,-940,270,0
4033,-941,265,0
4027,-947,260,0
4025,-948,261,0
4022,-953,262,0
4021,-952,265,0
4019,-951,263,0
4019,-948,266,0
4020,-944,263,0
4022,-935,265,0
4025,-933,262,0
4023,-927,260,0
4025,-924,256,0
4022,-917,256,0
4014,-907,259,0
4007,-905,254,0
4005,-901,249,0
4004,-901,251,0
4006,-910,251,0
4008,-913,248,0
4007,-910,244,0
4005,-910,241,0
4000,-906,237,0
3991,-901,237,0
3983,-898,239,0
3977,-901,238,0
3972,-902,236,0
3970,-906,230,0
3953,-888,227,0
3945,-886,225,0
3946,-896,230,0
3958,-915,233,0
3975,-924,231,0
3993,-930,225,0
4002,-931,219,0
4012,-926,217,0
4023,-919,221,0
4023,-914,219,0
4030,-914,218,0
4035,-913,218,0
4036,-909,218,0
4034,-909,218,0
4035,-909,217,0
4032,-916,216,0
4031,-920,214,0
4032,-923,215,0
4030,-922,219,0
4025,-920,221,0
4025,-926,219,0
4027,-928,220,0
4028,-926,224,0
4027,-927,228,0
4025,-931,220,0
4020,-931,210,0
4016,-931,203,0
4016,-921,206,0
4020,-917,202,0
4016,-918,211,0
4024,-911,216,0
4029,-917,217,0
4034,-933,223,0
4035,-952,227,0
4032,-963,228,0
4027,-965,231,0
4017,-962,230,0
4007,-951,232,0
3997,-939,225,0
3983,-924,223,0
3972,-913,217,0
3968,-911,214,0
3970,-912,212,0
3972,-915,213,0
3976,-919,213,0
3984,-922,213,0
3995,-923,216,0
4004,-928,224,0
4009,-928,230,0
4012,-930,234,0
4014,-926,239,0
4012,-923,240,0
4011,-919,238,0
4008,-917,232,0
4004,-908,229,0
4002,-906,230,0
3996,-907,230,0
3994,-911,228,0
3991,-915,232,0
3994,-919,233,0
3996,-930,236,0
3998,-938,237,0
4002,-941,237,0
4000,-942,240,0
3998,-938,239,0
4004,-932,238,0
4001,-930,234,0
4001,-930,235,0
4002,-927,234,0
3999,-926,237,0
3996,-927,235,0
3990,-924,233,0
3985,-925,235,0
3984,-925,236,0
3986,-921,238,0
3988,-919,241,0
3990,-916,242,0
3994,-917,244,0
3992,-914,241,0
3996,-910,241,0
4001,-909,246,0
3998,-906,248,0
3995,-907,251,0
3995,-906,251,0
3993,-910,250,0
3994,-907,252,0
3998,-909,253,0
3995,-908,255,0
3993,-906,256,0
3992,-902,255,0
3989,-901,255,0
3987,-900,254,0
3985,-898,254,0
3985,-897,257,0
3984,-893,257,0
3989,-895,256,0
3992,-901,255,0
3994,-899,254,0
3992,-900,256,0
3994,-898,256,0
4002,-896,257,0
4009,-896,263,0
4014,-896,262,0
4020,-893,260,0
4025,-888,258,0
4033,-892,259,0
4038,-893,257,0
4039,-893,253,0
4039,-892,251,0
4041,-892,246,0
4043,-894,245,0
4043,-898,239,0
4048,-903,235,0
4050,-908,232,0
4053,-908,235,0
4057,-907,239,0
4057,-902,241,0
4053,-906,240,0
4045,-906,239,0
4040,-896,231,0
4030,-898,230,0
4019,-902,234,0
4007,-896,238,0
3993,-894,238,0
3982,-893,239,0
3976,-892,236,0
3970,-890,235,0
3970,-890,231,0
3971,-889,230,0
3981,-892,234,0
3984,-889,231,0
3989,-890,234,0
3993,-891,237,0
4004,-891,236,0
4015,-891,236,0
4023,-895,237,0
4027,-894,233,0
4032,-902,233,0
4031,-906,231,0
4028,-912,231,0
4026,-919,233,0
4020,-928,232,0
4011,-930,235,0
4007,-929,238,0
4003,-925,237,0
4002,-929,236,0
3997,-929,234,0
4004,-926,236,0
4009,-923,234,0
4015,-917,238,0
4023,-914,239,0
4025,-915,237,0
4028,-917,234,0
4028,-919,229,0
4023,-919,221,0
4018,-918,217,0
4013,-919,214,0
4006,-923,216,0
3996,-923,221,0
3991,-924,226,0
3989,-925,231,0
3988,-932,235,0
3995,-936,242,0
3998,-940,243,0
4001,-939,249,0
4008,-941,249,0
4013,-937,248,0
4016,-937,240,0
4018,-938,236,0
4017,-932,227,0
4019,-924,229,0
4019,-916,228,0
4019,-911,225,0
4017,-907,229,0
4016,-902,228,0
4012,-894,226,0
4011,-892,222,0
4010,-890,221,0
4004,-883,222,0
4004,-890,223,0
4003,-892,224,0
3995,-896,227,0
3997,-902,237,0
3997,-904,245,0
4003,-910,252,0
4005,-919,257,0
3998,-926,251,0
3992,-935,249,0
3985,-941,247,0
3977,-946,246,0
3970,-951,244,0
3973,-948,243,0
3978,-951,245,0
3984,-954,250,0
3993,-958,251,0
3998,-956,256,0
4000,-959,254,0
4004,-960,253,0
4006,-959,244,0
4012,-957,239,0
4017,-953,237,0
4022,-945,243,0
4026,-935,243,0
4031,-930,245,0
4025,-926,243,0
4022,-922,246,0
4024,-919,248,0
4021,-921,250,0
4019,-922,251,0
4022,-930,254,0
4018,-937,256,0
4019,-940,260,0
4017,-941,265,0
4013,-938,266,0
4005,-937,263,0
4004,-940,261,0
3999,-940,255,0
3992,-940,247,0
3986,-937,245,0
3991,-941,241,0
3998,-943,244,0
3998,-946,246,0
4001,-947,255,0
4001,-940,262,0
4003,-945,257,0
3998,-947,255,0
3995,-943,254,0
3988,-934,255,0
3987,-930,252,0
3983,-929,250,0
3982,-929,244,0
3977,-931,246,0
3977,-933,246,0
3979,-937,246,0
3978,-932,247,0
3978,-935,248,0
3986,-952,248,0
3994,-966,252,0
3999,-975,248,0
4000,-973,246,0
4001,-976,245,0
3994,-979,246,0
3988,-980,250,0
3985,-987,248,0
3979,-993,247,0
3972,-991,249,0
3975,-996,249,0
3974,-998,256,0
3971,-1000,261,0
3976,-1002,261,0
3979,-1005,265,0
3982,-1002,264,0
3987,-997,263,0
3998,-986,263,0
4003,-981,265,0
4002,-982,266,0
4007,-978,262,0
4006,-980,265,0
4005,-976,268,0
4006,-973,270,0
4006,-963,278,0
4003,-958,278,0
4002,-962,272,0
4002,-964,266,0
3998,-957,260,0
3992,-950,264,0
3982,-948,261,0
3983,-948,258,0
3983,-943,255,0
3984,-944,258,0
3983,-942,258,0
3986,-944,261,0
3986,-943,259,0
3985,-946,260,0
3982,-953,264,0
3981,-951,263,0
3979,-955,267,0
3977,-956,271,0
3975,-960,278,0
3971,-962,280,0
3970,-967,278,0
3971,-965,278,0
3969,-963,276,0
3974,-964,272,0
3978,-967,273,0
3980,-968,274,0
3980,-971,274,0
3983,-977,274,0
3992,-980,272,0
3989,-979,268,0
3991,-979,268,0
3999,-978,265,0
3999,-973,263,0
3999,-969,264,0
3999,-965,266,0
3995,-969,264,0
3992,-968,263,0
3989,-964,262,0
3988,-966,266,0
3983,-967,266,0
3983,-967,267,0
3981,-967,266,0
3983,-965,264,0
3984,-966,263,0
3988,-961,262,0
3995,-957,260,0
4001,-955,258,0
4007,-953,254,0
4010,-947,251,0
4008,-951,251,0
4006,-958,251,0
3999,-959,251,0
3992,-964,254,0
3987,-966,251,0
3984,-964,256,0
3980,-964,259,0
3980,-965,264,0
3978,-970,261,0
3976,-972,262,0
3976,-975,259,0
3973,-975,256,0
3971,-974,254,0
3975,-974,248,0
3980,-973,248,0
3988,-976,249,0
3994,-976,249,0
3992,-972,248,0
3997,-971,251,0
4001,-967,249,0
4002,-961,249,0
4003,-958,251,0
4005,-952,251,0
4005,-946,252,0
4004,-940,253,0
3999,-934,256,0
3997,-930,253,0
3992,-930,251,0
3995,-930,253,0
3998,-927,252,0
4001,-926,255,0
3996,-930,258,0
3995,-932,259,0
3994,-932,257,0
3996,-934,251,0
3992,-931,252,0
3990,-927,252,0
3986,-929,253,0
3983,-934,256,0
3981,-934,264,0
3981,-931,265,0
3978,-928,263,0
3978,-928,260,0
3977,-924,261,0
3979,-922,259,0
3981,-926,252,0
3982,-917,249,0
3987,-919,247,0
3992,-925,249,0
3998,-928,244,0
4006,-932,246,0
4005,-934,243,0
4008,-934,246,0
4010,-940,249,0
4009,-947,253,0
4008,-957,255,0
4005,-962,250,0
3995,-958,246,0
3988,-956,244,0
3984,-959,241,0
3991,-962,234,0
3993,-960,238,0
3995,-960,238,0
4000,-953,240,0
4005,-953,232,0
4007,-955,228,0
4012,-959,229,0
4016,-962,227,0
4019,-965,224,0
4019,-970,222,0
4018,-968,219,0
4019,-967,211,0
4017,-969,213,0
4020,-967,209,0
4020,-967,208,0
4017,-969,209,0
4019,-970,212,0
4016,-968,216,0
4021,-972,221,0
4017,-973,228,0
4016,-975,232,0
4014,-978,234,0
4009,-979,231,0
4009,-975,236,0
4009,-972,233,0
4008,-966,235,0
4011,-964,234,0
4003,-959,233,0
4006,-956,233,0
4006,-948,229,0
4008,-944,231,0
4007,-941,232,0
4001,-943,235,0
4002,-944,235,0
4001,-943,235,0
4002,-942,235,0
3998,-943,238,0
3998,-945,245,0
3999,-944,250,0
3997,-939,251,0
4000,-942,251,0
4001,-946,247,0
4001,-952,245,0
4001,-951,245,0
4002,-951,246,0
3997,-943,249,0
3990,-931,249,0
3993,-942,247,0
3995,-952,249,0
4002,-958,250,0
4006,-963,249,0
4009,-964,248,0
4009,-963,248,0
4007,-954,249,0
4004,-948,245,0
3998,-948,244,0
3989,-946,239,0
3985,-947,238,0
3977,-949,241,0
3978,-952,241,0
3971,-952,242,0
3968,-951,244,0
3968,-948,246,0
3973,-946,245,0
3972,-943,243,0
3975,-942,243,0
3978,-938,240,0
3989,-935,237,0
3998,-933,237,0
4006,-931,235,0
4015,-929,237,0
4020,-928,238,0
4024,-934,243,0
4023,-938,241,0
4022,-939,243,0
4018,-943,243,0
4013,-948,243,0
4003,-953,242,0
3993,-956,250,0
3984,-956,250,0
3967,-937,252,0
3962,-932,248,0
3961,-946,248,0
3967,-966,244,0
3977,-980,243,0
3993,-988,245,0
4002,-977,252,0
4008,-963,253,0
4007,-956,248,0
4006,-954,241,0
4002,-953,235,0
4001,-953,234,0
4003,-954,233,0
4002,-957,229,0
4005,-954,228,0
4006,-953,229,0
4011,-959,227,0
4011,-960,231,0
4008,-960,233,0
4009,-963,237,0
4002,-963,239,0
3999,-963,238,0
4001,-964,239,0
3998,-963,242,0
4000,-963,244,0
4002,-963,246,0
4004,-963,250,0
4008,-963,253,0
4011,-963,254,0
4013,-962,253,0
4013,-961,247,0
4010,-958,246,0
4007,-960,244,0
4006,-959,238,0
4005,-960,238,0
4000,-957,236,0
3998,-963,242,0
3994,-967,241,0
3995,-971,240,0
3995,-970,241,0
3992,-965,245,0
3987,-962,249,0
3983,-956,251,0
3980,-952,249,0
3977,-952,249,0
3978,-953,250,0
3977,-954,250,0
3977,-954,244,0
3980,-950,243,0
3982,-947,244,0
3982,-946,244,0
3985,-944,247,0
3990,-942,249,0
3995,-940,248,0
3997,-938,244,0
4003,-936,246,0
4005,-935,243,0
4005,-936,241,0
4005,-939,242,0
4002,-940,242,0
3999,-940,241,0
3997,-942,242,0
3995,-950,241,0
3994,-949,239,0
3991,-950,239,0
3988,-949,237,0
3990,-948,240,0
3990,-952,239,0
3991,-952,237,0
3988,-953,240,0
3984,-955,240,0
3980,-945,244,0
3984,-946,240,0
3989,-956,241,0
3994,-967,237,0
3999,-968,240,0
4004,-963,242,0
4003,-957,246,0
4003,-958,242,0
4004,-959,241,0
3999,-959,237,0
3993,-959,238,0
3990,-960,240,0
3991,-965,245,0
3994,-964,252,0
3997,-964,258,0
3999,-964,259,0
4000,-961,256,0
3996,-959,252,0
3997,-959,247,0
3998,-955,246,0
3995,-952,248,0
3995,-952,246,0
3995,-953,245,0
3997,-954,247,0
3998,-958,251,0
3997,-960,253,0
3993,-962,257,0
3996,-962,257,0
4000,-965,258,0
3997,-963,258,0
3998,-960,258,0
3999,-956,257,0
3996,-951,259,0
3998,-948,259,0
4000,-949,256,0
3995,-949,256,0
3992,-951,257,0
3996,-953,258,0
3998,-955,260,0
3999,-957,255,0
3995,-961,254,0
3996,-960,253,0
3993,-962,251,0
3993,-969,252,0
3993,-969,253,0
3994,-970,250,0
4002,-974,251,0
4007,-976,254,0
4012,-977,257,0
4013,-972,258,0
4011,-966,258,0
4007,-964,261,0
4007,-964,259,0
4005,-961,262,0
3999,-960,262,0
3993,-957,260,0
3992,-958,258,0
3989,-953,259,0
3986,-951,257,0
3984,-948,256,0
3989,-951,252,0
3993,-952,253,0
3997,-949,250,0
4004,-950,253,0
4006,-953,249,0
4006,-957,248,0
4008,-959,247,0
4010,-963,252,0
4010,-965,254,0
4011,-964,259,0
4011,-962,262,0
4010,-963,263,0
4005,-964,263,0
3995,-965,268,0
3989,-964,267,0
3989,-967,273,0
3984,-967,278,0
3983,-969,277,0
3980,-968,273,0
3977,-968,273,0
3975,-962,274,0
3978,-961,275,0
3980,-957,275,0
3984,-954,277,0
3985,-950,266,0
3990,-957,267,0
3992,-964,268,0
3989,-967,266,0
3986,-968,265,0
3986,-967,268,0
3987,-972,269,0
3985,-978,266,0
3983,-979,265,0
3983,-983,266,0
3983,-982,265,0
3981,-982,264,0
3981,-984,262,0
3980,-983,262,0
3980,-981,264,0
3983,-980,264,0
3983,-979,263,0
3984,-978,268,0
3992,-979,267,0
3999,-978,269,0
4001,-974,266,0
4002,-974,263,0
4005,-970,268,0
4004,-966,269,0
4003,-963,269,0
4004,-965,267,0
4000,-962,268,0
3997,-960,268,0
3996,-961,270,0
3991,-961,273,0
3989,-964,272,0
3992,-964,277,0
3989,-965,279,0
3988,-965,280,0
3984,-962,280,0
3983,-961,273,0
3982,-959,271,0
3979,-957,270,0
3978,-957,267,0
3973,-958,270,0
3975,-959,271,0
3970,-960,269,0
3971,-963,266,0
3971,-958,263,0
3970,-961,262,0
3970,-961,263,0
3970,-963,260,0
3970,-962,261,0
3971,-961,259,0
3976,-966,258,0
3978,-963,255,0
3979,-963,254,0
3978,-968,254,0
3980,-967,254,0
3978,-968,249,0
3981,-968,249,0
3984,-970,251,0
3982,-967,253,0
3989,-965,253,0
3988,-964,253,0
3991,-965,253,0
3995,-963,255,0
3996,-960,250,0
3999,-958,255,0
3997,-959,253,0
3995,-962,249,0
3998,-962,249,0
4000,-967,249,0
4001,-974,245,0
4002,-976,245,0
4008,-976,250,0
4006,-975,250,0
4009,-975,248,0
4010,-971,252,0
4009,-967,249,0
4006,-966,252,0
4005,-968,249,0
4003,-969,246,0
3994,-968,245,0
3989,-963,242,0
3993,-962,240,0
3993,-958,240,0
3995,-957,241,0
3996,-954,241,0
3997,-948,242,0
4003,-948,243,0
4007,-948,247,0
4010,-948,251,0
4010,-946,251,0
4010,-943,247,0
4011,-940,249,0
4009,-942,250,0
4008,-948,251,0
4007,-949,249,0
4004,-951,245,0
3999,-953,238,0
3996,-952,236,0
3997,-947,237,0
4000,-946,236,0
4005,-945,238,0
4008,-946,244,0
4008,-949,242,0
4009,-954,244,0
4010,-956,246,0
4009,-958,247,0
4007,-955,245,0
4005,-955,246,0
4000,-956,246,0
3999,-956,247,0
4000,-952,245,0
3996,-950,242,0
4000,-949,243,0
4006,-945,242,0
4009,-942,240,0
4007,-939,245,0
4011,-941,245,0
4010,-941,245,0
4009,-935,246,0
4004,-935,249,0
3996,-937,253,0
3988,-939,257,0
3986,-939,256,0
3982,-938,251,0
3983,-935,247,0
3985,-934,241,0
3991,-930,237,0
4001,-929,227,0
4010,-922,224,0
4014,-924,227,0
4017,-925,232,0
4016,-926,235,0
4017,-926,241,0
4013,-928,248,0
4011,-930,253,0
4006,-935,256,0
4000,-929,254,0
3998,-929,254,0
3991,-928,256,0
3989,-934,256,0
3985,-936,260,0
3989,-935,261,0
3991,-935,260,0
3999,-936,263,0
3993,-941,261,0
3992,-945,258,0
3992,-945,257,0
3988,-946,257,0
3987,-947,256,0
3984,-942,255,0
3982,-942,255,0
3980,-939,257,0
3981,-935,261,0
3980,-935,263,0
3978,-935,264,0
3977,-934,260,0
3979,-932,260,0
3980,-931,258,0
3983,-928,256,0
3987,-924,253,0
3990,-918,251,0
3998,-922,250,0
4004,-921,250,0
4006,-919,249,0
4009,-920,248,0
4013,-920,244,0
4016,-919,247,0
4022,-920,248,0
4019,-921,251,0
4015,-923,252,0
4012,-921,249,0
4012,-922,250,0
4011,-920,256,0
4008,-920,255,0
4006,-921,253,0
4005,-920,255,0
4009,-920,259,0
4010,-921,264,0
4009,-921,265,0
4009,-925,264,0
4011,-927,266,0
4009,-927,263,0
4009,-926,261,0
4007,-927,265,0
4010,-929,263,0
4008,-930,267,0
4008,-928,264,0
4007,-927,266,0
4007,-929,268,0
4003,-924,269,0
3999,-922,270,0
3997,-921,273,0
3991,-919,271,0
3989,-914,269,0
3989,-912,270,0
3986,-910,271,0
3984,-910,270,0
3987,-909,267,0
3989,-907,269,0
3993,-910,268,0
3991,-909,264,0
3997,-909,262,0
3999,-907,262,0
4004,-908,263,0
4008,-904,263,0
4012,-908,261,0
4009,-906,258,0
4009,-909,258,0
4010,-914,257,0
4008,-912,257,0
4007,-910,256,0
4007,-912,254,0
4007,-917,254,0
4003,-918,255,0
4004,-920,256,0
4004,-924,256,0
4002,-923,255,0
4002,-923,255,0
4004,-925,253,0
4005,-926,254,0
4006,-926,253,0
4009,-927,253,0
4010,-929,251,0
4009,-928,251,0
4008,-927,258,0
4006,-926,259,0
4007,-929,259,0
4003,-931,259,0
4000,-933,254,0
4003,-935,258,0
4002,-933,257,0
4002,-929,257,0
4003,-933,259,0
4001,-934,264,0
4005,-934,262,0
4001,-936,266,0
4001,-936,262,0
4002,-937,260,0
4000,-934,262,0
4002,-934,262,0
4003,-927,260,0
4000,-920,261,0
3998,-921,261,0
3999,-925,263,0
3995,-929,267,0
3998,-928,270,0
3999,-929,270,0
3999,-928,273,0
3999,-931,274,0
4002,-934,273,0
4003,-934,270,0
4003,-932,269,0
4001,-930,269,0
4003,-932,268,0
4000,-932,267,0
4001,-928,266,0
4000,-924,269,0
4001,-922,268,0
4004,-924,265,0
4005,-924,265,0
4000,-927,267,0
3999,-931,269,0
3998,-933,269,0
3997,-932,270,0
3994,-931,274,0
3988,-935,271,0
3987,-937,266,0
3989,-938,265,0
3986,-935,262,0
3990,-928,260,0
3992,-920,252,0
3999,-913,251,0
4000,-910,248,0
4002,-911,247,0
4005,-911,248,0
4009,-916,250,0
4010,-918,251,0
4010,-917,258,0
4010,-918,257,0
4007,-911,259,0
4008,-911,259,0
4005,-913,260,0
4007,-919,262,0
3999,-927,265,0
3995,-932,267,0
3996,-936,271,0
3993,-938,270,0
3992,-940,270,0
3992,-947,273,0
3988,-949,267,0
3991,-953,269,0
3991,-954,271,0
3988,-951,271,0
3990,-951,272,0
3989,-948,274,0
3990,-950,272,0
3985,-952,269,0
3991,-954,265,0
3993,-957,266,0
3988,-961,265,0
3987,-961,266,0
3987,-955,268,0
3983,-951,268,0
3985,-947,268,0
3988,-947,269,0
3986,-947,274,0
3988,-948,274,0
3990,-949,270,0
3990,-946,272,0
3995,-941,273,0
4000,-941,272,0
4005,-942,278,0
4006,-940,278,0
4006,-936,277,0
4005,-940,277,0
4003,-940,271,0
4004,-936,268,0
4004,-933,266,0
4002,-932,265,0
4003,-928,267,0
4001,-928,269,0
4004,-930,270,0
4007,-930,274,0
4010,-930,277,0
4012,-928,278,0
4012,-931,281,0
4013,-932,281,0
4013,-935,274,0
4012,-936,264,0
4010,-937,263,0
4004,-934,259,0
3998,-930,258,0
3997,-931,254,0
4000,-937,251,0
3998,-937,252,0
3998,-934,257,0
3999,-933,258,0
4003,-935,260,0
4006,-935,260,0
4007,-940,255,0
4009,-943,253,0
4010,-948,253,0
4009,-944,250,0
4010,-945,242,0
4012,-946,240,0
4014,-948,241,0
4015,-950,238,0
4016,-953,238,0
4016,-947,240,0
4012,-950,236,0
4007,-959,233,0
4005,-961,232,0
4000,-966,233,0
4001,-967,241,0
4000,-970,245,0
4002,-975,250,0
4005,-976,254,0
4002,-977,255,0
4002,-981,251,0
3997,-982,253,0
3995,-982,251,0
3992,-980,250,0
3988,-974,254,0
3985,-971,254,0
3982,-964,254,0
3978,-959,253,0
3976,-954,252,0
3979,-949,253,0
3982,-949,255,0
3986,-950,258,0
3989,-948,262,0
3994,-948,264,0
3997,-950,263,0
4000,-956,262,0
4005,-955,266,0
4006,-956,264,0
4007,-960,262,0
4005,-964,258,0
4006,-963,249,0
4004,-962,249,0
4004,-960,246,0
4000,-959,249,0
3998,-962,253,0
3992,-967,257,0
3989,-951,271,0
3981,-965,264,0
3983,-992,259,0
3982,-1008,262,0
3983,-1005,263,0
3982,-997,260,0
3980,-987,258,0
3983,-982,253,0
3982,-978,248,0
3987,-979,245,0
3989,-974,241,0
3990,-970,242,0
3991,-969,242,0
3994,-970,247,0
3991,-961,259,0
3998,-952,264,0
3990,-950,265,0
3989,-966,271,0
3997,-964,271,0
4000,-955,277,0
4002,-942,284,0
4002,-930,285,0
4004,-924,287,0
4007,-922,292,0
4010,-920,300,0
4008,-917,310,0
4010,-917,319,0
4008,-918,322,0
4007,-926,320,0
4008,-933,324,0
4009,-934,325,0
4011,-925,325,0
4010,-918,329,0
4011,-908,331,0
4009,-901,333,0
4011,-894,343,0
4014,-885,350,0
4018,-876,352,0
4019,-876,354,0
4021,-868,353,0
4029,-858,362,0
4033,-850,372,0
4036,-842,377,0
4035,-843,378,0
4039,-843,376,0
4043,-837,377,0
4044,-831,380,0
4046,-831,374,0
4040,-831,369,0
4035,-836,360,0
4031,-844,355,0
4034,-852,347,0
4035,-856,339,0
4042,-859,335,0
4048,-858,326,0
4057,-861,326,0
4062,-877,326,0
4067,-897,326,0
4068,-920,325,0
4065,-943,320,0
4058,-959,314,0
4055,-977,324,0
4057,-992,334,0
4056,-1001,335,0
4045,-1015,324,0
4032,-1032,317,0
4020,-1055,306,0
4014,-1076,298,0
4003,-1089,298,0
3992,-1097,294,0
3974,-1100,291,0
3957,-1111,276,0
3922,-1138,196,0
3884,-1154,163,0
3856,-1151,185,0
3849,-1148,211,0
3847,-1149,224,0
3822,-1160,206,0
3788,-1182,172,0
3753,-1215,133,0
3716,-1246,88,0
3676,-1257,57,0
3638,-1262,28,0
3604,-1253,10,0
3582,-1246,-5,0
3569,-1238,-7,0
3567,-1239,-2,0
3564,-1243,7,0
3564,-1244,18,0
3567,-1251,37,0
3564,-1260,55,0
3569,-1268,72,0
3572,-1275,93,0
3582,-1265,129,0
3589,-1254,162,0
3604,-1236,194,0
3628,-1219,221,0
3658,-1202,244,0
3704,-1197,267,0
3761,-1173,305,0
3838,-1155,346,0
3925,-1144,381,0
4016,-1125,410,0
4113,-1093,443,0
4217,-1053,475,0
4317,-1001,506,0
4409,-944,534,0
4495,-874,557,0
4569,-816,562,0
4627,-766,572,0
4668,-707,588,0
4695,-660,601,0
4719,-612,627,0
4737,-564,672,0
4744,-504,729,0
4760,-462,801,0
4770,-420,868,0
4757,-378,916,0
4731,-345,932,0
4693,-321,921,0
4632,-300,898,0
4565,-290,874,0
4504,-291,855,0
4445,-295,833,0
4399,-298,818,0
4374,-319,817,0
4355,-345,814,0
4337,-381,817,0
4310,-422,810,0
4270,-474,797,0
4227,-536,777,0
4174,-604,756,0
4115,-675,730,0
4046,-747,709,0
3970,-825,701,0
3891,-894,697,0
3817,-969,700,0
3753,-1042,701,0
3698,-1097,702,0
3652,-1149,693,0
3595,-1191,676,0
3554,-1232,653,0
3521,-1277,641,0
3501,-1305,633,0
3492,-1311,620,0
3496,-1318,619,0
3494,-1327,630,0
3490,-1341,644,0
3474,-1357,656,0
3456,-1358,667,0
3435,-1358,675,0
3417,-1365,677,0
3402,-1375,669,0
3375,-1377,669,0
3349,-1368,665,0
3326,-1351,657,0
3314,-1336,650,0
3311,-1324,647,0
3317,-1306,656,0
3335,-1289,673,0
3357,-1264,694,0
3383,-1227,719,0
3413,-1188,750,0
3447,-1156,785,0
3485,-1128,817,0
3524,-1107,836,0
3559,-1082,847,0
3585,-1052,847,0
3605,-1008,843,0
3631,-979,821,0
3627,-924,841,0
3608,-881,872,0
3603,-845,894,0
3614,-807,931,0
3634,-776,981,0
3662,-754,1030,0
3689,-732,1061,0
3708,-715,1076,0
3727,-699,1084,0
3738,-686,1084,0
3743,-662,1083,0
3747,-644,1086,0
3760,-618,1104,0
3778,-605,1122,0
3798,-581,1141,0
3820,-558,1158,0
3850,-549,1158,0
3880,-549,1148,0
3920,-550,1127,0
3961,-562,1107,0
4003,-572,1095,0
4050,-581,1100,0
4081,-591,1110,0
4116,-612,1126,0
4145,-637,1138,0
4167,-639,1165,0
4186,-645,1181,0
4188,-651,1181,0
4169,-657,1171,0
4137,-666,1155,0
4097,-653,1140,0
4040,-629,1134,0
3981,-603,1134,0
3922,-581,1127,0
3868,-548,1121,0
3819,-520,1133,0
3797,-515,1147,0
3779,-491,1187,0
3782,-475,1229,0
3788,-474,1261,0
3802,-488,1285,0
3814,-513,1296,0
3824,-539,1299,0
3832,-567,1300,0
3845,-601,1298,0
3863,-635,1301,0
3866,-655,1297,0
3874,-667,1296,0
3878,-677,1293,0
3884,-680,1282,0
3891,-686,1271,0
3901,-684,1273,0
3912,-677,1290,0
3930,-663,1311,0
3943,-646,1338,0
3950,-634,1353,0
3954,-620,1358,0
3954,-607,1361,0
3949,-582,1358,0
3925,-531,1405,0
3891,-483,1458,0
3868,-480,1484,0
3854,-528,1478,0
3814,-625,1366,0
3721,-770,1100,0
3604,-925,758,0
3520,-1056,453,0
3513,-1173,248,0
3623,-1289,176,0
3836,-1417,211,0
4118,-1559,289,0
4454,-1769,352,0
4786,-2038,336,0
5087,-2397,186,0
5357,-2817,-29,0
5640,-3287,-255,0
5960,-3745,-422,0
6347,-4156,-522,0
6760,-4451,-571,0
7153,-4598,-579,0
7464,-4563,-523,0
7629,-4386,-420,0
7587,-4106,-281,0
7264,-3697,-115,0
6745,-3249,23,0
6141,-2848,89,0
5536,-2561,71,0
4968,-2371,6,0
4460,-2213,-63,0
4002,-2025,-89,0
3595,-1792,-78,0
3236,-1541,-26,0
2908,-1276,47,0
2587,-1014,96,0
2272,-775,90,0
1955,-564,44,0
1659,-359,-19,0
1410,-175,-80,0
1194,25,-122,0
1024,225,-147,0
936,405,-155,0
950,571,-133,0
1094,639,-117,0
1343,590,-104,0
1655,473,-85,0
1984,315,-60,0
2318,149,-30,0
2646,-39,-17,0
2953,-237,-9,0
3244,-474,-3,0
3528,-762,16,0
3803,-1104,41,0
4050,-1472,74,0
4288,-1837,96,0
4493,-2175,107,0
4652,-2476,101,0
4776,-2744,70,0
4844,-2956,34,0
4879,-3132,-18,0
4871,-3242,-68,0
4797,-3247,-101,0
4682,-3180,-132,0
4553,-3072,-161,0
4409,-2938,-182,0
4263,-2778,-196,0
4131,-2604,-204,0
4005,-2426,-208,0
3899,-2244,-210,0
3816,-2064,-210,0
3757,-1891,-230,0
3712,-1730,-245,0
3681,-1572,-257,0
3668,-1431,-241,0
3670,-1292,-208,0
3688,-1165,-158,0
3722,-1062,-97,0
3776,-995,-23,0
3834,-960,46,0
3895,-970,95,0
3954,-1031,116,0
3997,-1101,114,0
4023,-1184,99,0
4031,-1271,71,0
4018,-1347,39,0
3990,-1420,14,0
3955,-1502,-10,0
3916,-1581,-24,0
3874,-1657,-40,0
3843,-1733,-40,0
3818,-1785,-33,0
3797,-1821,-16,0
3784,-1858,-3,0
3770,-1887,-12,0
3753,-1871,-16,0
3743,-1850,-30,0
3742,-1820,-32,0
3738,-1771,-41,0
3738,-1731,-64,0
3748,-1649,-69,0
3759,-1548,-91,0
3770,-1441,-119,0
3784,-1304,-136,0
3811,-1125,-101,0
3842,-926,-55,0
3867,-749,-26,0
3893,-589,21,0
3915,-438,80,0
3920,-291,140,0
3917,-167,192,0
3900,-80,249,0
3872,8,319,0
3840,71,394,0
3799,122,482,0
3756,158,549,0
3707,189,612,0
3658,213,652,0
3598,225,681,0
3559,237,717,0
3531,256,776,0
3507,270,826,0
3492,267,838,0
3486,251,816,0
3492,234,795,0
3513,212,762,0
3549,183,741,0
3593,157,708,0
3642,131,669,0
3715,95,644,0
3799,61,642,0
3899,29,662,0
4005,-14,698,0
4111,-54,749,0
4205,-104,802,0
4294,-155,856,0
4369,-207,909,0
4433,-265,939,0
4476,-329,946,0
4505,-398,964,0
4532,-454,1018,0
4554,-491,1103,0
4564,-507,1195,0
4564,-525,1283,0
4537,-515,1347,0
4479,-501,1371,0
4397,-480,1371,0
4303,-437,1370,0
4202,-374,1365,0
4100,-272,1360,0
3992,-156,1350,0
3877,-42,1302,0
3742,83,1239,0
3625,216,1191,0
3532,360,1181,0
3481,508,1180,0
3478,631,1196,0
3538,692,1222,0
3648,687,1220,0
3789,611,1189,0
3945,467,1121,0
4106,267,1017,0
4267,16,915,0
4417,-258,856,0
4546,-522,852,0
4649,-781,878,0
4744,-1066,866,0
4845,-1386,783,0
4953,-1734,616,0
5068,-2081,394,0
5168,-2382,161,0
5219,-2578,-57,0
5221,-2665,-208,0
5159,-2637,-325,0
5037,-2535,-439,0
4872,-2410,-553,0
4702,-2278,-684,0
4516,-2154,-811,0
4344,-2051,-928,0
4189,-1949,-1014,0
4053,-1884,-1067,0
3939,-1853,-1103,0
3839,-1846,-1107,0
3742,-1865,-1103,0
3643,-1892,-1097,0
3554,-1937,-1079,0
3492,-2010,-1032,0
3444,-2088,-957,0
3421,-2166,-864,0
3418,-2243,-766,0
3436,-2303,-672,0
3482,-2342,-586,0
3538,-2332,-505,0
3588,-2271,-429,0
3642,-2197,-354,0
3712,-2120,-277,0
3800,-2044,-223,0
3892,-1965,-191,0
3977,-1875,-189,0
4046,-1783,-183,0
4109,-1681,-205,0
4162,-1567,-249,0
4209,-1450,-320,0
4237,-1325,-414,0
4260,-1205,-505,0
4271,-1084,-586,0
4283,-957,-633,0
4309,-829,-644,0
4343,-700,-627,0
4384,-580,-597,0
4426,-471,-557,0
4467,-385,-502,0
4490,-326,-468,0
4504,-289,-443,0
4494,-261,-414,0
4477,-233,-370,0
4462,-213,-320,0
4456,-211,-242,0
4454,-219,-156,0
4454,-227,-65,0
4445,-241,29,0
4428,-265,120,0
4386,-300,187,0
4320,-347,226,0
4230,-397,248,0
4141,-448,267,0
4052,-482,290,0
3969,-496,331,0
3895,-491,373,0
3839,-476,405,0
3794,-452,431,0
3745,-442,422,0
3697,-443,410,0
3658,-449,389,0
3616,-453,379,0
3579,-443,386,0
3546,-418,417,0
3526,-397,461,0
3509,-369,524,0
3501,-350,597,0
3508,-345,658,0
3524,-357,686,0
3544,-378,694,0
3558,-398,686,0
3582,-415,663,0
3612,-416,633,0
3652,-407,606,0
3712,-390,612,0
3775,-356,656,0
3847,-308,739,0
3923,-266,839,0
3981,-229,927,0
4012,-213,991,0
4015,-214,1033,0
3978,-230,1043,0
3901,-272,1023,0
3790,-327,982,0
3663,-377,963,0
3538,-421,975,0
3428,-440,1021,0
3336,-452,1087,0
3278,-455,1184,0
3242,-458,1297,0
3231,-455,1395,0
3240,-457,1476,0
3271,-478,1529,0
3307,-512,1553,0
3351,-557,1538,0
3396,-597,1494,0
3434,-639,1425,0
3450,-669,1331,0
3459,-698,1198,0
3472,-708,1060,0
3497,-682,946,0
3541,-645,884,0
3603,-594,861,0
3668,-534,849,0
3725,-492,834,0
3789,-475,805,0
3852,-484,767,0
3905,-518,718,0
3952,-575,665,0
3997,-644,613,0
4047,-722,583,0
4095,-793,545,0
4154,-877,513,0
4211,-962,500,0
4268,-1033,530,0
4332,-1096,592,0
4395,-1155,689,0
4462,-1229,811,0
4523,-1340,928,0
4586,-1436,1059,0
4639,-1548,1176,0
4675,-1652,1264,0
4682,-1727,1348,0
4653,-1767,1416,0
4597,-1737,1492,0
4535,-1675,1553,0
4458,-1594,1587,0
4361,-1508,1574,0
4245,-1432,1520,0
4137,-1368,1435,0
4035,-1324,1338,0
3948,-1287,1234,0
3879,-1243,1135,0
3847,-1207,1046,0
3848,-1167,985,0
3883,-1142,957,0
3964,-1138,938,0
4054,-1171,900,0
4161,-1264,830,0
4277,-1433,712,0
4393,-1637,568,0
4519,-1848,434,0
4673,-2041,332,0
4844,-2194,270,0
5016,-2316,198,0
5177,-2414,96,0
5294,-2463,-53,0
5326,-2442,-245,0
5275,-2360,-437,0
5149,-2224,-592,0
4968,-2065,-706,0
4731,-1895,-782,0
4440,-1690,-828,0
4132,-1480,-855,0
3822,-1296,-865,0
3523,-1135,-859,0
3246,-1002,-829,0
3015,-903,-774,0
2843,-845,-692,0
2721,-833,-616,0
2662,-885,-558,0
2673,-971,-525,0
2746,-1074,-519,0
2864,-1195,-531,0
3015,-1335,-567,0
3178,-1481,-629,0
3332,-1627,-718,0
3465,-1747,-819,0
3580,-1823,-903,0
3697,-1842,-947,0
3829,-1827,-934,0
3972,-1830,-864,0
4128,-1863,-743,0
4290,-1931,-583,0
4436,-2023,-429,0
4548,-2133,-308,0
4617,-2235,-224,0
4646,-2321,-177,0
4647,-2415,-167,0
4630,-2483,-167,0
4582,-2520,-180,0
4499,-2508,-227,0
4378,-2457,-330,0
4238,-2425,-499,0
4100,-2342,-676,0
3997,-2239,-810,0
3942,-2114,-876,0
3920,-1931,-884,0
3938,-1731,-842,0
3973,-1512,-755,0
4022,-1315,-684,0
4078,-1157,-602,0
4159,-1025,-491,0
4224,-931,-414,0
4254,-874,-399,0
4268,-869,-437,0
4275,-877,-473,0
4300,-915,-474,0
4330,-939,-453,0
4361,-966,-423,0
4371,-940,-409,0
4337,-891,-420,0
4264,-778,-433,0
4176,-615,-460,0
4072,-456,-464,0
3956,-301,-444,0
3845,-155,-420,0
3725,-2,-394,0
3604,98,-408,0
3501,157,-443,0
3433,220,-401,0
3418,259,-275,0
3435,311,-111,0
3462,308,37,0
3482,258,145,0
3518,179,256,0
3566,94,430,0
3606,29,633,0
3633,-34,794,0
3631,-93,872,0
3595,-149,866,0
3534,-165,838,0
3477,-159,804,0
3426,-102,798,0
3394,-19,827,0
3378,78,837,0
3379,176,821,0
3388,286,807,0
3429,387,812,0
3507,472,834,0
3608,530,860,0
3704,557,850,0
3781,563,809,0
3830,549,751,0
3853,519,694,0
3879,481,651,0
3889,444,618,0
3900,407,592,0
3909,368,575,0
3927,320,576,0
3945,276,595,0
3957,235,618,0
3959,188,626,0
3958,138,629,0
3955,94,635,0
3949,55,646,0
3939,16,654,0
3931,-39,660,0
3931,-108,677,0
3945,-189,708,0
3974,-275,764,0
4017,-347,864,0
4065,-411,993,0
4127,-466,1119,0
4199,-522,1217,0
4268,-575,1273,0
4321,-622,1285,0
4352,-651,1267,0
4359,-673,1214,0
4348,-672,1168,0
4328,-642,1136,0
4306,-584,1144,0
4291,-498,1184,0
4263,-380,1235,0
4223,-245,1285,0
